{
  "resourceType": "Bundle",
  "id": "Amanda-Gloria-Peters-469-Encounter-1862",
  "type": "transaction",
  "entry": [
    {
      "fullUrl": "http://localhost:8080/cqf-ruler/baseDstu3/Encounter/Encounter-1862",
      "resource": {
        "resourceType": "Encounter",
        "id": "Encounter-1862",
        "meta": {
          "profile": [
            "http://hl7.org/fhir/us/hedis/StructureDefinition/hedis-encounter"
          ]
        },
        "extension": [
          {
            "url": "http://mihin.org/extension/copyright",
            "valueString": "Copyright 2014-2018 Michigan Health Information Network Shared Services. Licensed under the Apache License, Version 2.0 (the 'License'); you may not use this file except in compliance with the License. You may obtain a copy of the License at  http://www.apache.org/licenses/LICENSE-2.0.  Unless required by applicable law or agreed to in writing, software distributed under the License is distributed on an 'AS IS' BASIS, WITHOUT WARRANTIES OR CONDITIONS OF ANY KIND, either express or implied. See the License for the specific language governing permissions and limitations under the License."
          }
        ],
        "status": "finished",
        "class": {
          "system": "http://hl7.org/fhir/encounter-class",
          "code": "ambulatory",
          "display": "ambulatory"
        },
        "type": [
          {
            "coding": [
              {
                "system": "http://snomed.info/sct",
                "code": "185464004",
                "display": "Combined Office Visits"
              }
            ]
          }
        ],
        "subject": {
          "reference": "Patient/Patient-469",
          "display": "Amanda Gloria Peters"
        },
        "participant": [
          {
            "period": {
              "start": "2017-11-11T00:00:00-05:00",
              "end": "2017-11-11T00:00:00-05:00"
            },
            "individual": {
              "reference": "Practitioner/Practitioner-25",
              "display": "Amy Roberta Blevins MD"
            }
          }
        ],
        "period": {
          "start": "2017-11-11T00:00:00-05:00",
          "end": "2017-11-11T00:00:00-05:00"
        },
        "location": [
          {
            "location": {
              "reference": "Location/Location-137",
              "display": "EMS Comprehensive Care"
            }
          }
        ],
        "serviceProvider": {
          "reference": "Organization/Organization-1006",
          "display": "EMS Comprehensive Care"
        }
      },
      "request": {
        "method": "PUT",
        "url": "http://localhost:8080/cqf-ruler/baseDstu3/Encounter/Encounter-1862"
      }
    },
    {
      "fullUrl": "http://localhost:8080/cqf-ruler/baseDstu3/Procedure/Procedure-69345",
      "resource": {
        "resourceType": "Procedure",
        "id": "Procedure-69345",
        "meta": {
          "profile": [
            "http://hl7.org/fhir/us/hedis/StructureDefinition/hedis-procedure"
          ]
        },
        "extension": [
          {
            "url": "http://mihin.org/extension/copyright",
            "valueString": "Copyright 2014-2018 Michigan Health Information Network Shared Services. Licensed under the Apache License, Version 2.0 (the 'License'); you may not use this file except in compliance with the License. You may obtain a copy of the License at  http://www.apache.org/licenses/LICENSE-2.0.  Unless required by applicable law or agreed to in writing, software distributed under the License is distributed on an 'AS IS' BASIS, WITHOUT WARRANTIES OR CONDITIONS OF ANY KIND, either express or implied. See the License for the specific language governing permissions and limitations under the License."
          }
        ],
        "identifier": [
          {
            "use": "official",
            "system": "mihin.org/fhir/sid/elementId",
            "value": "c94c4ae8-50ae-4d1d-972c-b19f05edc911"
          }
        ],
        "status": "completed",
        "code": {
          "coding": [
            {
              "system": "http://www.ama-assn.org/go/cpt",
              "code": "87620"
            }
          ]
        },
        "subject": {
          "reference": "Patient/Patient-469",
          "display": "Amanda Gloria Peters"
        },
        "context": {
          "reference": "Encounter/Encounter-1862",
          "display": "Ambulatory_Encounter"
        },
        "performedPeriod": {
          "start": "2017-11-11T00:00:00-05:00",
          "end": "2017-11-11T00:00:00-05:00"
        },
        "performer": [
          {
            "actor": {
              "reference": "Practitioner/Practitioner-25",
              "display": "Amy Roberta Blevins MD"
            }
          }
        ],
        "location": {
          "reference": "Location/Location-137",
          "display": "EMS Comprehensive Care"
        }
      },
      "request": {
        "method": "PUT",
        "url": "http://localhost:8080/cqf-ruler/baseDstu3/Procedure/Procedure-69345"
      }
    },
    {
      "fullUrl": "http://localhost:8080/cqf-ruler/baseDstu3/Condition/Condition-69347",
      "resource": {
        "resourceType": "Condition",
        "id": "Condition-69347",
        "meta": {
          "profile": [
            "http://hl7.org/fhir/us/hedis/StructureDefinition/hedis-condition"
          ]
        },
        "extension": [
          {
            "url": "http://mihin.org/extension/copyright",
            "valueString": "Copyright 2014-2018 Michigan Health Information Network Shared Services. Licensed under the Apache License, Version 2.0 (the 'License'); you may not use this file except in compliance with the License. You may obtain a copy of the License at  http://www.apache.org/licenses/LICENSE-2.0.  Unless required by applicable law or agreed to in writing, software distributed under the License is distributed on an 'AS IS' BASIS, WITHOUT WARRANTIES OR CONDITIONS OF ANY KIND, either express or implied. See the License for the specific language governing permissions and limitations under the License."
          }
        ],
        "identifier": [
          {
            "use": "official",
            "system": "mihin.org/fhir/sid/elementId",
            "value": "8667d7c2-5928-4be0-8ee2-21ab277ab1be"
          }
        ],
        "clinicalStatus": "active",
        "verificationStatus": "confirmed",
        "code": {
          "coding": [
            {
              "system": "http://snomed.info/sct",
              "code": "68240008",
              "display": "International Federation of Gynecology and Obstetrics cervical cancer stage II (finding) "
            }
          ]
        },
        "subject": {
          "reference": "Patient/Patient-469",
          "display": "Amanda Gloria Peters"
        },
        "context": {
          "reference": "Encounter/Encounter-1862",
          "display": "Ambulatory_Encounter"
        },
        "onsetDateTime": "2017-11-11T00:00:00-05:00",
        "assertedDate": "2017-11-11T00:00:00-05:00",
        "asserter": {
          "reference": "Practitioner/Practitioner-25",
          "display": "Amy Roberta Blevins MD"
        }
      },
      "request": {
        "method": "PUT",
        "url": "http://localhost:8080/cqf-ruler/baseDstu3/Condition/Condition-69347"
      }
    },
    {
      "fullUrl": "http://localhost:8080/cqf-ruler/baseDstu3/Observation/Observation-69348",
      "resource": {
        "resourceType": "Observation",
        "id": "Observation-69348",
        "meta": {
          "profile": [
            "http://hl7.org/fhir/us/hedis/StructureDefinition/hedis-observation"
          ]
        },
        "extension": [
          {
            "url": "http://mihin.org/extension/copyright",
            "valueString": "Copyright 2014-2018 Michigan Health Information Network Shared Services. Licensed under the Apache License, Version 2.0 (the 'License'); you may not use this file except in compliance with the License. You may obtain a copy of the License at  http://www.apache.org/licenses/LICENSE-2.0.  Unless required by applicable law or agreed to in writing, software distributed under the License is distributed on an 'AS IS' BASIS, WITHOUT WARRANTIES OR CONDITIONS OF ANY KIND, either express or implied. See the License for the specific language governing permissions and limitations under the License."
          }
        ],
        "identifier": [
          {
            "use": "official",
            "system": "mihin.org/fhir/sid/elementId",
            "value": "eba9c075-6f4a-446d-9fd3-fc03614b40ea"
          }
        ],
        "status": "final",
        "category": [
          {
            "coding": [
              {
                "system": "http://hl7.org/fhir/observation-category",
                "code": "exam",
                "display": "Exam"
              }
            ]
          }
        ],
        "code": {
          "coding": [
            {
              "system": "http://snomed.info/sct",
              "code": "439888000",
              "display": "Abnormal cervical Papanicolaou smear (finding)"
            }
          ]
        },
        "subject": {
          "reference": "Patient/Patient-469",
          "display": "Amanda Gloria Peters"
        },
        "context": {
          "reference": "Encounter/Encounter-1862",
          "display": "Ambulatory_Encounter"
        },
        "effectiveDateTime": "2017-11-11T00:00:00-05:00",
        "performer": [
          {
            "reference": "Practitioner/Practitioner-25",
            "display": "Amy Roberta Blevins MD"
          }
        ],
        "valueString": "POSITIVE"
      },
      "request": {
        "method": "PUT",
        "url": "http://localhost:8080/cqf-ruler/baseDstu3/Observation/Observation-69348"
      }
    },
    {
      "fullUrl": "http://localhost:8080/cqf-ruler/baseDstu3/DiagnosticReport/DiagnosticReport-69349",
      "resource": {
        "resourceType": "DiagnosticReport",
        "id": "DiagnosticReport-69349",
        "meta": {
          "profile": [
            "http://hl7.org/fhir/us/hedis/StructureDefinition/hedis-diagnosticreport"
          ]
        },
        "extension": [
          {
            "url": "http://mihin.org/extension/copyright",
            "valueString": "Copyright 2014-2018 Michigan Health Information Network Shared Services. Licensed under the Apache License, Version 2.0 (the 'License'); you may not use this file except in compliance with the License. You may obtain a copy of the License at  http://www.apache.org/licenses/LICENSE-2.0.  Unless required by applicable law or agreed to in writing, software distributed under the License is distributed on an 'AS IS' BASIS, WITHOUT WARRANTIES OR CONDITIONS OF ANY KIND, either express or implied. See the License for the specific language governing permissions and limitations under the License."
          }
        ],
        "identifier": [
          {
            "use": "official",
            "system": "mihin.org/fhir/sid/elementId",
            "value": "b1824b4b-b8d0-4ca5-a19e-0a7c1f20f2d3"
          }
        ],
        "status": "final",
        "code": {
          "coding": [
            {
              "system": "http://loinc.org",
              "code": "18500-9"
            }
          ]
        },
        "subject": {
          "reference": "Patient/Patient-469",
          "display": "Amanda Gloria Peters"
        },
        "context": {
          "reference": "Encounter/Encounter-1862",
          "display": "Ambulatory_Encounter"
        },
        "effectivePeriod": {
          "start": "2017-11-11T00:00:00-05:00",
          "end": "2017-11-11T00:00:00-05:00"
        },
        "issued": "2017-11-11T00:00:00.000-05:00",
        "result": [
          {
            "reference": "Observation/Observation-69348",
            "display": "Cervical_Cancer_Report_Observation_1"
          }
        ]
      },
      "request": {
        "method": "PUT",
        "url": "http://localhost:8080/cqf-ruler/baseDstu3/DiagnosticReport/DiagnosticReport-69349"
      }
    }
  ]
}