{
  "resourceType": "Bundle",
  "id": "EXM125-FHIR3-7.2.000-bundle",
  "type": "transaction",
  "entry": [ {
    "resource": {
      "resourceType": "MeasureReport",
      "id": "measurereport-numer-EXM125-FHIR3",
      "contained": [ {
        "resourceType": "Bundle",
        "id": "7dc4989e-5d2a-48ff-9bb7-df0efc130deb",
        "type": "collection",
        "entry": [ {
          "fullUrl": "312e828b-ac92-4b68-a841-d0a248c8d2d4",
          "resource": {
            "resourceType": "List",
            "id": "312e828b-ac92-4b68-a841-d0a248c8d2d4",
            "title": "numerator",
            "entry": [ {
              "item": {
                "reference": "numer-EXM125-FHIR3-2"
              }
            } ]
          }
        }, {
          "fullUrl": "Encounter/numer-EXM125-FHIR3-3",
          "resource": {
            "resourceType": "Encounter",
            "id": "numer-EXM125-FHIR3-3",
            "meta": {
              "profile": [ "http://hl7.org/fhir/us/core/StructureDefinition/us-core-encounter" ]
            },
            "status": "finished",
            "class": {
              "system": "http://terminology.hl7.org/CodeSystem/v3-ActCode",
              "code": "AMB",
              "display": "ambulatory"
            },
            "type": [ {
              "coding": [ {
                "system": "http://www.ama-assn.org/go/cpt",
                "code": "99201",
                "display": "Office or other outpatient visit for the evaluation and management of a new patient, which requires these 3 key components: A problem focused history; A problem focused examination; Straightforward medical decision making. Counseling and/or coordination of care with other physicians, other qualified health care professionals, or agencies are provided consistent with the nature of the problem(s) and the patient's and/or family's needs. Usually, the presenting problem(s) are self limited or minor. Typically, 10 minutes are spent face-to-face with the patient and/or family."
              } ]
            } ],
            "subject": {
              "reference": "Patient/numer-EXM125-FHIR3"
            },
            "period": {
              "start": "2019-05-30T00:00:00-00:00",
              "end": "2019-05-31T00:00:00-00:00"
            }
          }
        }, {
          "fullUrl": "DiagnosticReport/numer-EXM125-FHIR3-2",
          "resource": {
            "resourceType": "DiagnosticReport",
            "id": "numer-EXM125-FHIR3-2",
            "meta": { },
            "status": "final",
            "code": {
              "coding": [ {
                "system": "http://loinc.org",
                "code": "24604-1",
                "display": "MG Breast Diagnostic Limited Views"
              } ]
            },
            "subject": {
              "reference": "Patient/numer-EXM125-FHIR3"
            },
            "effectivePeriod": {
              "start": "2018-05-30T00:00:00-00:00",
              "end": "2018-11-30T00:00:00-00:00"
            }
          }
        }, {
          "fullUrl": "Patient/numer-EXM125-FHIR3",
          "resource": {
            "resourceType": "Patient",
            "id": "numer-EXM125-FHIR3",
            "meta": {
              "profile": [ "http://hl7.org/fhir/us/core/StructureDefinition/us-core-patient" ]
            },
            "extension": [ {
              "url": "http://hl7.org/fhir/us/core/StructureDefinition/us-core-race",
              "extension": [ {
                "url": "ombCategory",
                "valueCoding": {
                  "system": "urn:oid:2.16.840.1.113883.6.238",
                  "code": "2028-9",
                  "display": "Asian"
                }
              } ]
            }, {
              "url": "http://hl7.org/fhir/us/core/StructureDefinition/us-core-ethnicity",
              "extension": [ {
                "url": "ombCategory",
                "valueCoding": {
                  "system": "urn:oid:2.16.840.1.113883.6.238",
                  "code": "2135-2",
                  "display": "Hispanic or Latino"
                }
              } ]
            } ],
            "identifier": [ {
              "use": "usual",
              "type": {
                "coding": [ {
                  "system": "http://terminology.hl7.org/CodeSystem/v2-0203",
                  "code": "MR",
                  "display": "Medical Record Number"
                } ]
              },
              "system": "http://hospital.smarthealthit.org",
              "value": "999999992"
            } ],
            "name": [ {
              "family": "Snuffy",
              "given": [ "Moe" ]
            } ],
            "gender": "female",
            "birthDate": "1965-01-01"
          }
        }, {
          "fullUrl": "688252a4-92d2-495a-aac4-cce1b5e5050b",
          "resource": {
            "resourceType": "List",
            "id": "688252a4-92d2-495a-aac4-cce1b5e5050b",
            "title": "initial-population",
            "entry": [ {
              "item": {
                "reference": "numer-EXM125-FHIR3-3"
              }
            }, {
              "item": {
                "reference": "numer-EXM125-FHIR3"
              }
            } ]
          }
        } ]
      } ],
      "status": "complete",
      "type": "individual",
      "measure": {
        "reference": "Measure/measure-EXM125-FHIR3-7.2.000"
      },
      "patient": {
        "reference": "Patient/numer-EXM125-FHIR3"
      },
      "period": {
        "start": "2019-01-01T00:00:00-07:00",
        "end": "2019-12-31T00:00:00-07:00"
      },
      "group": [ {
        "identifier": {
          "value": "group-1"
        },
        "population": [ {
          "identifier": {
            "value": "initial-population-identifier"
          },
          "code": {
            "coding": [ {
              "system": "http://terminology.hl7.org/CodeSystem/measure-population",
              "code": "initial-population",
              "display": "Initial Population"
            } ]
          },
          "count": 1
        }, {
          "identifier": {
            "value": "numerator-identifier"
          },
          "code": {
            "coding": [ {
              "system": "http://terminology.hl7.org/CodeSystem/measure-population",
              "code": "numerator",
              "display": "Numerator"
            } ]
          },
          "count": 1
        }, {
          "identifier": {
            "value": "denominator-identifier"
          },
          "code": {
            "coding": [ {
              "system": "http://terminology.hl7.org/CodeSystem/measure-population",
              "code": "denominator",
              "display": "Denominator"
            } ]
          },
          "count": 1
        }, {
          "identifier": {
            "value": "denominator-exclusions-identifier"
          },
          "code": {
            "coding": [ {
              "system": "http://terminology.hl7.org/CodeSystem/measure-population",
              "code": "denominator-exclusion",
              "display": "Denominator Exclusion"
            } ]
          },
          "count": 0
        } ],
        "measureScore": 1.0
      } ],
      "evaluatedResources": {
        "reference": "#7dc4989e-5d2a-48ff-9bb7-df0efc130deb"
      }
    },
    "request": {
      "method": "PUT",
      "url": "MeasureReport/measurereport-numer-EXM125-FHIR3"
    }
  }, {
    "resource": {
      "resourceType": "Measure",
      "id": "measure-EXM125-FHIR3-7.2.000",
      "meta": {
        "versionId": "4",
        "lastUpdated": "2019-08-16T22:25:16.512+00:00",
        "profile": [ "http://hl7.org/fhir/us/cqfmeasures/StructureDefinition/proportion-measure-cqfm" ]
      },
      "text": {
        "status": "generated",
        "div": "<div xmlns=\"http://www.w3.org/1999/xhtml\"><table class=\"grid dict\"><tr style=\"vertical-align: top;\"><th scope=\"row\"><b>Id: </b></th><td style=\"padding-left: 25px; padding-right: 25px;\">Measure/measure-exm125-FHIR3</td></tr><tr style=\"vertical-align: top;\"><th rowspan=\"1\" scope=\"row\"><b>Type: </b></th><td style=\"padding-left: 25px; padding-right: 25px;\"><span><br/><span><span style=\"padding-left: 25px;\"><b>system: </b><span>http://hl7.org/fhir/measure-type</span><br/></span><span style=\"padding-left: 25px;\"><b>code: </b><span>process</span></span></span></span></td></tr><tr style=\"vertical-align: top;\"><th rowspan=\"2\" scope=\"row\"><b>Identifier: </b></th><td style=\"padding-left: 25px; padding-right: 25px;\"><b>system: </b><span>http://hl7.org/fhir/cqi/ecqm/Measure/Identifier/cms</span><br/><b>value: </b><span>146</span></td></tr><tr style=\"vertical-align: top;\"><td style=\"padding-left: 25px; padding-right: 25px;\"><b>system: </b><span>http://hl7.org/fhir/cqi/ecqm/Measure/Identifier/nqf</span><br/><b>value: </b><span>0002</span></td></tr><tr style=\"vertical-align: top;\"><th scope=\"row\"><b>Title: </b></th><td style=\"padding-left: 25px; padding-right: 25px;\">Breast Cancer Screening</td></tr><tr style=\"vertical-align: top;\"><th scope=\"row\"><b>Status: </b></th><td style=\"padding-left: 25px; padding-right: 25px;\">active</td></tr><tr style=\"vertical-align: top;\"><th scope=\"row\"><b>Description: </b></th><td style=\"padding-left: 25px; padding-right: 25px;\">Percentage of women 50-74 years of age who had a mammogram to screen for breast cancer</td></tr><tr style=\"vertical-align: top;\"><th scope=\"row\"><b>Purpose: </b></th><td style=\"padding-left: 25px; padding-right: 25px;\">Women 51-74 years of age with a visit during the measurement period</td></tr><tr style=\"vertical-align: top;\"><th rowspan=\"1\" scope=\"row\"><b>Use Context: </b></th><td style=\"padding-left: 25px; padding-right: 25px;\"><p style=\"padding-left: 25px; margin-bottom: 5px;\"><b>code: </b><span>program</span></p><p style=\"padding-left: 25px; margin-bottom: 5px;\"><b>value: </b><br/><span><span style=\"padding-left: 25px;\"><b>text: </b><span>eligibile-provider</span></span></span></p></td></tr><tr style=\"vertical-align: top;\"><th rowspan=\"1\" scope=\"row\"><b>Topic: </b></th><td style=\"padding-right: 25px;\"><span><br/><span><span style=\"padding-left: 25px;\"><b>system: </b><span>http://loinc.org</span><br/></span><span style=\"padding-left: 25px;\"><b>code: </b><span>57024-2</span><br/></span><span style=\"padding-left: 25px;\"><b>display: </b><span>Health Quality Measure Document</span></span></span></span></td></tr><tr style=\"vertical-align: top;\"><th rowspan=\"1\" scope=\"row\"><b>Contributor: </b></th><td style=\"padding-left: 25px; padding-right: 25px;\"><b><span>author</span>: </b><span>National Committee for Quality Assurance</span></td></tr><tr style=\"vertical-align: top;\"><th rowspan=\"5\" scope=\"row\"><b>Related: </b></th><td style=\"padding-left: 25px; padding-right: 25px;\"><p style=\"margin-bottom: 5px;\"><b>type: </b><span>citation</span></p><p style=\"margin-bottom: 5px;\"><b>citation: </b><br/><span>American Cancer Society. 2010. Cancer Facts &amp; Figures 2010. Atlanta: American Cancer Society.</span></p></td></tr><tr style=\"vertical-align: top;\"><td style=\"padding-left: 25px; padding-right: 25px;\"><p style=\"margin-bottom: 5px;\"><b>type: </b><span>citation</span></p><p style=\"margin-bottom: 5px;\"><b>citation: </b><br/><span>National Cancer Institute. 2010. &quot;Breast Cancer Screening.&quot; http://www.cancer.gov/cancertopics/pdq/screening/breast/healthprofessional</span></p></td></tr><tr style=\"vertical-align: top;\"><td style=\"padding-left: 25px; padding-right: 25px;\"><p style=\"margin-bottom: 5px;\"><b>type: </b><span>citation</span></p><p style=\"margin-bottom: 5px;\"><b>citation: </b><br/><span>National Business Group on Health. 2011. Pathways to Managing Cancer in the Workplace. Washington: National Business Group on Health.</span></p></td></tr><tr style=\"vertical-align: top;\"><td style=\"padding-left: 25px; padding-right: 25px;\"><p style=\"margin-bottom: 5px;\"><b>type: </b><span>citation</span></p><p style=\"margin-bottom: 5px;\"><b>citation: </b><br/><span>U.S. Preventive Services Task Force (USPSTF). 2009. 1) &quot;Screening for breast cancer: U.S. Preventive Services Task Force recommendation statement.&quot; 2) &quot;December 2009 addendum.&quot; Ann Intern Med 151(10):716-726.</span></p></td></tr><tr style=\"vertical-align: top;\"><td style=\"padding-left: 25px; padding-right: 25px;\"><p style=\"margin-bottom: 5px;\"><b>type: </b><span>citation</span></p><p style=\"margin-bottom: 5px;\"><b>citation: </b><br/><span>BreastCancer.org. 2012. U.S. Breast Cancer Statistics. www.breastcancer.org/symptoms/understand_bc/statistics.jsp</span></p></td></tr><tr style=\"vertical-align: top;\"><th rowspan=\"1\" scope=\"row\"><b>Library: </b></th><td><p style=\"padding-left: 25px; padding-right: 25px;\"><b>reference: </b><span>Library/library-exm125-FHIR3</span></p></td></tr><tr><th scope=\"row\"><b>Disclaimer: </b></th><td style=\"padding-left: 25px; padding-right: 25px;\">The performance Measure is not a clinical guideline and does not establish a standard of medical care, and has not been tested for all potential applications. THE MEASURE AND SPECIFICATIONS ARE PROVIDED &quot;AS IS&quot; WITHOUT WARRANTY OF ANY KIND.</td></tr><tr><th scope=\"row\"><b>Scoring: </b></th><td style=\"padding-left: 25px; padding-right: 25px;\"><span><br/><span><span style=\"padding-left: 25px;\"><b>system: </b><span>http://hl7.org/fhir/measure-scoring</span><br/></span><span style=\"padding-left: 25px;\"><b>code: </b><span>proportion</span></span></span></span></td></tr><tr><th scope=\"row\"><b>Rationale: </b></th><td style=\"padding-left: 25px; padding-right: 25px;\">Breast cancer is one of the most common types of cancers, accounting for a quarter of all new cancer diagnoses for women in the U.S. (BreastCancer.Org, 2011). It ranks as the second leading cause of cancer-related mortality in women, accounting for nearly 40,000 estimated deaths in 2013 (American Cancer Society, 2011). &lt;br&gt; According to the National Cancer Institute's Surveillance Epidemiology and End Results program, the chance of a woman being diagnosed with breast cancer in a given year increases with age. By age 30, it is one in 2,212. By age 40, the chances increase to one in 235, by age 50, it becomes one in 54, and, by age 60, it is one in 25. From 2004 to 2008, the median age at the time of breast cancer diagnosis was 61 years among adult women (Tangka et al, 2010). &lt;br&gt; In the U.S., costs associated with a diagnosis of breast cancer range from $451 to $2,520, factoring in continued testing, multiple office visits, and varying procedures. The total costs related to breast cancer add up to nearly $7 billion per year in the U.S., including $2 billion spent on late-stage treatment (Lavigne et al, 2008; Boykoff et al, 2009).</td></tr><tr><th scope=\"row\"><b>Clinical Recommendation: </b></th><td style=\"padding-left: 25px; padding-right: 25px;\">The U.S. Preventive Services Task Force (USPSTF) recommends biennial screening mammography for women aged 50-74 years (B recommendation). The decision to start regular, biennial screening mammography before the age of 50 years should be an individual one and take patient context into account, including the patient's values regarding specific benefits and harms (C recommendation). The Task Force concludes the evidence is insufficient to assess the additional benefits and harms of screening mammography in women 75 years and older (I statement). &lt;br&gt; U.S. Preventive Services Task Force (2009) &lt;br&gt; Grade: B recommendation. The USPSTF recommends biennial screening mammography for women aged 50 to 74 years. &lt;br&gt; Grade: C recommendation. The decision to start regular, biennial screening mammography before the age of 50 years should be an individual one and take patient context into account, including the patient's values regarding specific benefits and harms. &lt;br&gt; Grade: I Statement. The USPSTF concludes that the current evidence is insufficient to assess the additional benefits and harms of screening mammography in women 75 years or older. &lt;br&gt; Grade: D recommendation. The USPSTF recommends against teaching breast self-examination (BSE). &lt;br&gt; Grade: I Statement. The USPSTF concludes that the current evidence is insufficient to assess the additional benefits and harms of clinical breast examination (CBE) beyond screening mammography in women 40 years or older. &lt;br&gt; Grade: I Statement. The USPSTF concludes that the current evidence is insufficient to assess the additional benefits and harms of either digital mammography or magnetic resonance imaging (MRI) instead of film mammography as screening modalities for breast cancer.</td></tr><tr><th scope=\"row\"><b>Guidance: </b></th><td style=\"padding-left: 25px; padding-right: 25px;\">Patient self-report for procedures as well as diagnostic studies should be recorded in 'Procedure, Performed' template or 'Diagnostic Study, Performed' template in QRDA-1. Patient self-report is not allowed for laboratory tests. &lt;br&gt; This measure evaluates primary screening. Do not count biopsies, breast ultrasounds, MRIs or tomosynthesis (3D mammography), because they are not appropriate methods for primary breast cancer screening.</td></tr><tr style=\"vertical-align: top;\"><th scope=\"row\"><b>Group:</b></th><td><p style=\"padding-left: 25px; padding-right: 25px;\"><b>Identifier:</b><br/><span style=\"padding-left: 25px;\"><b>value: </b><span>group-1</span><br/></span></p></td></tr><tr style=\"vertical-align: top;\"><td colspan=\"2\"><table style=\"margin-bottom: 5px; width: 100%\"><tr style=\"vertical-align: top;\"><th rowspan=\"4\" scope=\"row\" style=\"padding-left: 25px;\"><b>Population:</b></th><td><p style=\"margin-bottom: 5px; padding-left: 25px;\"><b>Identifier:</b><br/><span style=\"padding-left: 25px;\"><b>value: </b><span>initial-population-identifier</span><br/></span></p><p style=\"margin-bottom: 5px; padding-left: 25px;\"><b>criteria: </b><span>Initial Population</span></p></td></tr><tr style=\"vertical-align: top;\"><td><p style=\"margin-bottom: 5px; padding-left: 25px;\"><b>Identifier:</b><br/><span style=\"padding-left: 25px;\"><b>value: </b><span>numerator-identifier</span><br/></span></p><p style=\"margin-bottom: 5px; padding-left: 25px;\"><b>criteria: </b><span>Numerator</span></p></td></tr><tr style=\"vertical-align: top;\"><td><p style=\"margin-bottom: 5px; padding-left: 25px;\"><b>Identifier:</b><br/><span style=\"padding-left: 25px;\"><b>value: </b><span>denominator-identifier</span><br/></span></p><p style=\"margin-bottom: 5px; padding-left: 25px;\"><b>criteria: </b><span>Denominator</span></p></td></tr><tr style=\"vertical-align: top;\"><td><p style=\"margin-bottom: 5px; padding-left: 25px;\"><b>Identifier:</b><br/><span style=\"padding-left: 25px;\"><b>value: </b><span>denominator-exclusions-identifier</span><br/></span></p><p style=\"margin-bottom: 5px; padding-left: 25px;\"><b>criteria: </b><span>Denominator Exclusion</span></p></td></tr></table></td></tr><tr><th rowspan=\"4\" scope=\"row\"><b>Supplemental Data:</b></th><td style=\"padding-left: 25px; padding-right: 25px;\"><p style=\"margin-bottom: 5px;\"><b>Identifier:</b><br/><span style=\"padding-left: 25px;\"><b>value: </b><span>sde-ethnicity</span><br/></span></p><p style=\"margin-bottom: 5px;\"><b>usage: </b><span><span><br/><span><span style=\"padding-left: 25px;\"><b>system: </b><span>http://hl7.org/fhir/measure-data-usage</span><br/></span><span style=\"padding-left: 25px;\"><b>code: </b><span>supplemental-data</span></span></span></span></span></p><p style=\"margin-bottom: 5px;\"><b>criteria: </b><span>SDE Ethnicity</span></p></td></tr><tr><td style=\"padding-left: 25px; padding-right: 25px;\"><p style=\"margin-bottom: 5px;\"><b>Identifier:</b><br/><span style=\"padding-left: 25px;\"><b>value: </b><span>sde-payer</span><br/></span></p><p style=\"margin-bottom: 5px;\"><b>usage: </b><span><span><br/><span><span style=\"padding-left: 25px;\"><b>system: </b><span>http://hl7.org/fhir/measure-data-usage</span><br/></span><span style=\"padding-left: 25px;\"><b>code: </b><span>supplemental-data</span></span></span></span></span></p><p style=\"margin-bottom: 5px;\"><b>criteria: </b><span>SDE Payer</span></p></td></tr><tr><td style=\"padding-left: 25px; padding-right: 25px;\"><p style=\"margin-bottom: 5px;\"><b>Identifier:</b><br/><span style=\"padding-left: 25px;\"><b>value: </b><span>sde-race</span><br/></span></p><p style=\"margin-bottom: 5px;\"><b>usage: </b><span><span><br/><span><span style=\"padding-left: 25px;\"><b>system: </b><span>http://hl7.org/fhir/measure-data-usage</span><br/></span><span style=\"padding-left: 25px;\"><b>code: </b><span>supplemental-data</span></span></span></span></span></p><p style=\"margin-bottom: 5px;\"><b>criteria: </b><span>SDE Race</span></p></td></tr><tr><td style=\"padding-left: 25px; padding-right: 25px;\"><p style=\"margin-bottom: 5px;\"><b>Identifier:</b><br/><span style=\"padding-left: 25px;\"><b>value: </b><span>sde-sex</span><br/></span></p><p style=\"margin-bottom: 5px;\"><b>usage: </b><span><span><br/><span><span style=\"padding-left: 25px;\"><b>system: </b><span>http://hl7.org/fhir/measure-data-usage</span><br/></span><span style=\"padding-left: 25px;\"><b>code: </b><span>supplemental-data</span></span></span></span></span></p><p style=\"margin-bottom: 5px;\"><b>criteria: </b><span>SDE Sex</span></p></td></tr></table></div>"
      },
      "extension": [ {
        "url": "http://hl7.org/fhir/us/cqfmeasures/StructureDefinition/cqfm-populationBasis",
        "valueCode": "boolean"
      }, {
        "url": "http://hl7.org/fhir/us/cqfmeasures/StructureDefinition/cqfm-softwaresystem",
        "valueReference": {
          "reference": "cqf-tooling"
        }
      } ],
      "url": "http://hl7.org/fhir/us/cqfmeasures/Measure/measure-exm125-FHIR3",
      "identifier": [ {
        "use": "official",
        "system": "http://hl7.org/fhir/cqi/ecqm/Measure/Identifier/cms",
        "value": "146"
      }, {
        "use": "official",
        "system": "http://hl7.org/fhir/cqi/ecqm/Measure/Identifier/nqf",
        "value": "0002"
      } ],
      "version": "6.2.000",
      "name": "EXM125",
      "title": "Breast Cancer Screening",
      "status": "active",
      "experimental": true,
      "date": "2018-08-31",
      "publisher": "National Committee for Quality Assurance",
      "description": "Percentage of women 50-74 years of age who had a mammogram to screen for breast cancer",
      "purpose": "Women 51-74 years of age with a visit during the measurement period",
      "approvalDate": "2016-01-01",
      "lastReviewDate": "2016-09-01",
      "effectivePeriod": {
        "start": "2019-01-01",
        "end": "2019-12-31"
      },
      "useContext": [ {
        "code": {
          "code": "program"
        },
        "valueCodeableConcept": {
          "text": "eligibile-provider"
        }
      } ],
      "jurisdiction": [ {
        "coding": [ {
          "system": "urn:iso:std:iso:3166",
          "code": "US"
        } ]
      } ],
      "topic": [ {
        "coding": [ {
          "system": "http://loinc.org",
          "code": "57024-2",
          "display": "Health Quality Measure Document"
        } ]
      } ],
      "contributor": [ {
        "type": "author",
        "name": "National Committee for Quality Assurance"
      } ],
      "contact": [ {
        "telecom": [ {
          "system": "url",
          "value": "http://www.ncqa.org/"
        } ]
      } ],
      "copyright": "This Physician Performance Measure (Measure) and related data specifications were developed by the National Committee for Quality Assurance (NCQA). The Measure is copyrighted but can be reproduced and distributed, without modification, for noncommercial purposes (eg, use by healthcare providers in connection with their practices) without obtaining approval from NCQA. Commercial use is defined as the sale, licensing, or distribution of the Measure for commercial gain, or incorporation of the Measure into a product or service that is sold, licensed or distributed for commercial gain. All commercial uses must be approved by NCQA and are subject to a license at the discretion of NCQA. NCQA is not responsible for any use of the Measure. NCQA makes no representations, warranties, or endorsement about the quality of any organization or physician that uses or reports performance measures and NCQA has no liability to anyone who relies on such measures or specifications. (C) 2012-2017 National Committee for Quality Assurance. All Rights Reserved. <br>  Limited proprietary coding is contained in the Measure specifications for user convenience. Users of proprietary code sets should obtain all necessary licenses from the owners of the code sets. NCQA disclaims all liability for use or accuracy of any CPT or other codes contained in the specifications. <br> CPT(R) contained in the Measure specifications is copyright 2004-2016 American Medical Association. LOINC(R) copyright 2004-2016 Regenstrief Institute, Inc. This material contains SNOMED Clinical Terms(R) (SNOMED CT[R]) copyright 2004-2016 International Health Terminology Standards Development Organisation. ICD-10 copyright 2016 World Health Organization. All Rights Reserved. <br> The American Hospital Association holds a copyright to the National Uniform Billing Committee (NUBC) codes contained in the measure specifications. The NUBC codes in the specifications are included with the permission of the AHA. The NUBC codes contained in the specifications may be used by health plans and other health care delivery organizations for the purpose of calculating and reporting Measure results or using Measure results for their internal quality improvement purposes. All other uses of the NUBC codes require a license from the AHA. Anyone desiring to use the NUBC codes in a commercial product to generate Measure results, or for any other commercial use, must obtain a commercial use license directly from the AHA. To inquire about licensing, contact ub04@healthforum.com.",
      "relatedArtifact": [ {
        "type": "citation",
        "citation": "American Cancer Society. 2010. Cancer Facts & Figures 2010. Atlanta: American Cancer Society."
      }, {
        "type": "citation",
        "citation": "National Cancer Institute. 2010. \"Breast Cancer Screening.\" http://www.cancer.gov/cancertopics/pdq/screening/breast/healthprofessional"
      }, {
        "type": "citation",
        "citation": "National Business Group on Health. 2011. Pathways to Managing Cancer in the Workplace. Washington: National Business Group on Health."
      }, {
        "type": "citation",
        "citation": "U.S. Preventive Services Task Force (USPSTF). 2009. 1) \"Screening for breast cancer: U.S. Preventive Services Task Force recommendation statement.\" 2) \"December 2009 addendum.\" Ann Intern Med 151(10):716-726."
      }, {
        "type": "citation",
        "citation": "BreastCancer.org. 2012. U.S. Breast Cancer Statistics. www.breastcancer.org/symptoms/understand_bc/statistics.jsp"
      } ],
      "library": [ {
        "reference": "Library/library-EXM125-FHIR3-7.2.000"
      } ],
      "disclaimer": "The performance Measure is not a clinical guideline and does not establish a standard of medical care, and has not been tested for all potential applications. THE MEASURE AND SPECIFICATIONS ARE PROVIDED \"AS IS\" WITHOUT WARRANTY OF ANY KIND.",
      "scoring": {
        "coding": [ {
          "system": "http://hl7.org/fhir/measure-scoring",
          "code": "proportion"
        } ]
      },
      "type": [ {
        "coding": [ {
          "system": "http://hl7.org/fhir/measure-type",
          "code": "process"
        } ]
      } ],
      "rationale": "Breast cancer is one of the most common types of cancers, accounting for a quarter of all new cancer diagnoses for women in the U.S. (BreastCancer.Org, 2011). It ranks as the second leading cause of cancer-related mortality in women, accounting for nearly 40,000 estimated deaths in 2013 (American Cancer Society, 2011). <br> According to the National Cancer Institute's Surveillance Epidemiology and End Results program, the chance of a woman being diagnosed with breast cancer in a given year increases with age. By age 30, it is one in 2,212. By age 40, the chances increase to one in 235, by age 50, it becomes one in 54, and, by age 60, it is one in 25. From 2004 to 2008, the median age at the time of breast cancer diagnosis was 61 years among adult women (Tangka et al, 2010). <br> In the U.S., costs associated with a diagnosis of breast cancer range from $451 to $2,520, factoring in continued testing, multiple office visits, and varying procedures. The total costs related to breast cancer add up to nearly $7 billion per year in the U.S., including $2 billion spent on late-stage treatment (Lavigne et al, 2008; Boykoff et al, 2009).",
      "clinicalRecommendationStatement": "The U.S. Preventive Services Task Force (USPSTF) recommends biennial screening mammography for women aged 50-74 years (B recommendation). The decision to start regular, biennial screening mammography before the age of 50 years should be an individual one and take patient context into account, including the patient's values regarding specific benefits and harms (C recommendation). The Task Force concludes the evidence is insufficient to assess the additional benefits and harms of screening mammography in women 75 years and older (I statement). <br> U.S. Preventive Services Task Force (2009) <br> Grade: B recommendation. The USPSTF recommends biennial screening mammography for women aged 50 to 74 years. <br> Grade: C recommendation. The decision to start regular, biennial screening mammography before the age of 50 years should be an individual one and take patient context into account, including the patient's values regarding specific benefits and harms. <br> Grade: I Statement. The USPSTF concludes that the current evidence is insufficient to assess the additional benefits and harms of screening mammography in women 75 years or older. <br> Grade: D recommendation. The USPSTF recommends against teaching breast self-examination (BSE). <br> Grade: I Statement. The USPSTF concludes that the current evidence is insufficient to assess the additional benefits and harms of clinical breast examination (CBE) beyond screening mammography in women 40 years or older. <br> Grade: I Statement. The USPSTF concludes that the current evidence is insufficient to assess the additional benefits and harms of either digital mammography or magnetic resonance imaging (MRI) instead of film mammography as screening modalities for breast cancer.",
      "improvementNotation": "increase",
      "guidance": "Patient self-report for procedures as well as diagnostic studies should be recorded in 'Procedure, Performed' template or 'Diagnostic Study, Performed' template in QRDA-1. Patient self-report is not allowed for laboratory tests. <br> This measure evaluates primary screening. Do not count biopsies, breast ultrasounds, MRIs or tomosynthesis (3D mammography), because they are not appropriate methods for primary breast cancer screening.",
      "group": [ {
        "identifier": {
          "value": "group-1"
        },
        "population": [ {
          "identifier": {
            "value": "initial-population-identifier"
          },
          "code": {
            "coding": [ {
              "system": "http://terminology.hl7.org/CodeSystem/measure-population",
              "code": "initial-population",
              "display": "Initial Population"
            } ]
          },
          "criteria": "Initial Population"
        }, {
          "identifier": {
            "value": "numerator-identifier"
          },
          "code": {
            "coding": [ {
              "system": "http://terminology.hl7.org/CodeSystem/measure-population",
              "code": "numerator",
              "display": "Numerator"
            } ]
          },
          "criteria": "Numerator"
        }, {
          "identifier": {
            "value": "denominator-identifier"
          },
          "code": {
            "coding": [ {
              "system": "http://terminology.hl7.org/CodeSystem/measure-population",
              "code": "denominator",
              "display": "Denominator"
            } ]
          },
          "criteria": "Denominator"
        }, {
          "identifier": {
            "value": "denominator-exclusions-identifier"
          },
          "code": {
            "coding": [ {
              "system": "http://terminology.hl7.org/CodeSystem/measure-population",
              "code": "denominator-exclusion",
              "display": "Denominator Exclusion"
            } ]
          },
          "criteria": "Denominator Exclusion"
        } ]
      } ],
      "supplementalData": [ {
        "identifier": {
          "value": "sde-ethnicity"
        },
        "usage": [ {
          "coding": [ {
            "system": "http://hl7.org/fhir/measure-data-usage",
            "code": "supplemental-data"
          } ]
        } ],
        "criteria": "SDE Ethnicity"
      }, {
        "identifier": {
          "value": "sde-payer"
        },
        "usage": [ {
          "coding": [ {
            "system": "http://hl7.org/fhir/measure-data-usage",
            "code": "supplemental-data"
          } ]
        } ],
        "criteria": "SDE Payer"
      }, {
        "identifier": {
          "value": "sde-race"
        },
        "usage": [ {
          "coding": [ {
            "system": "http://hl7.org/fhir/measure-data-usage",
            "code": "supplemental-data"
          } ]
        } ],
        "criteria": "SDE Race"
      }, {
        "identifier": {
          "value": "sde-sex"
        },
        "usage": [ {
          "coding": [ {
            "system": "http://hl7.org/fhir/measure-data-usage",
            "code": "supplemental-data"
          } ]
        } ],
        "criteria": "SDE Sex"
      } ]
    },
    "request": {
      "method": "PUT",
      "url": "Measure/measure-EXM125-FHIR3-7.2.000/_history/4"
    }
  }, {
    "resource": {
      "resourceType": "Patient",
      "id": "numer-EXM125-FHIR3",
      "meta": {
        "profile": [ "http://hl7.org/fhir/us/core/StructureDefinition/us-core-patient" ]
      },
      "extension": [ {
        "url": "http://hl7.org/fhir/us/core/StructureDefinition/us-core-race",
        "extension": [ {
          "url": "ombCategory",
          "valueCoding": {
            "system": "urn:oid:2.16.840.1.113883.6.238",
            "code": "2028-9",
            "display": "Asian"
          }
        } ]
      }, {
        "url": "http://hl7.org/fhir/us/core/StructureDefinition/us-core-ethnicity",
        "extension": [ {
          "url": "ombCategory",
          "valueCoding": {
            "system": "urn:oid:2.16.840.1.113883.6.238",
            "code": "2135-2",
            "display": "Hispanic or Latino"
          }
        } ]
      } ],
      "identifier": [ {
        "use": "usual",
        "type": {
          "coding": [ {
            "system": "http://terminology.hl7.org/CodeSystem/v2-0203",
            "code": "MR",
            "display": "Medical Record Number"
          } ]
        },
        "system": "http://hospital.smarthealthit.org",
        "value": "999999992"
      } ],
      "name": [ {
        "family": "Snuffy",
        "given": [ "Moe" ]
      } ],
      "gender": "female",
      "birthDate": "1965-01-01"
    },
    "request": {
      "method": "PUT",
      "url": "Patient/numer-EXM125-FHIR3"
    }
  }, {
    "resource": {
      "resourceType": "Bundle",
      "id": "tests-Encounter-bundle",
      "type": "transaction",
      "entry": [ {
        "resource": {
          "resourceType": "Encounter",
          "id": "denom-EXM125-FHIR3-1",
          "meta": {
            "profile": [ "http://hl7.org/fhir/us/core/StructureDefinition/us-core-encounter" ]
          },
          "status": "finished",
          "class": {
            "system": "http://terminology.hl7.org/CodeSystem/v3-ActCode",
            "code": "AMB",
            "display": "ambulatory"
          },
          "type": [ {
            "coding": [ {
              "system": "http://www.ama-assn.org/go/cpt",
              "code": "99201",
              "display": "Office or other outpatient visit for the evaluation and management of a new patient, which requires these 3 key components: A problem focused history; A problem focused examination; Straightforward medical decision making. Counseling and/or coordination of care with other physicians, other qualified health care professionals, or agencies are provided consistent with the nature of the problem(s) and the patient's and/or family's needs. Usually, the presenting problem(s) are self limited or minor. Typically, 10 minutes are spent face-to-face with the patient and/or family."
            } ]
          } ],
          "subject": {
            "reference": "Patient/denom-EXM125-FHIR3"
          },
          "period": {
            "start": "2019-05-30T00:00:00-00:00",
            "end": "2019-05-31T00:00:00-00:00"
          }
        },
        "request": {
          "method": "PUT",
          "url": "Encounter/denom-EXM125-FHIR3-1"
        }
      } ]
    },
    "request": {
      "method": "PUT",
      "url": "tests-Encounter-bundle"
    }
  }, {
    "resource": {
      "resourceType": "DiagnosticReport",
      "id": "denom-EXM125-FHIR3-2",
      "meta": {
        "profile": [ "http://hl7.org/fhir/us/core/FHIR3/StructureDefinition-us-core-diagnosticreport-note" ]
      },
      "status": "final",
      "code": {
        "coding": [ {
          "system": "http://loinc.org",
          "code": "24604-1",
          "display": "MG Breast Diagnostic Limited Views"
        } ]
      },
      "subject": {
        "reference": "Patient/denom-EXM125-FHIR3"
      },
      "effectivePeriod": {
        "start": "2016-11-01T00:00:00",
        "end": "2016-11-01T00:00:00"
      }
    },
    "request": {
      "method": "PUT",
      "url": "DiagnosticReport/denom-EXM125-FHIR3-2"
    }
  }, {
    "resource": {
      "resourceType": "Encounter",
      "id": "denom-EXM125-FHIR3-1",
      "meta": {
        "profile": [ "http://hl7.org/fhir/us/core/StructureDefinition/us-core-encounter" ]
      },
      "status": "finished",
      "class": {
        "system": "http://terminology.hl7.org/CodeSystem/v3-ActCode",
        "code": "AMB",
        "display": "ambulatory"
      },
      "type": [ {
        "coding": [ {
          "system": "http://www.ama-assn.org/go/cpt",
          "code": "99201",
          "display": "Office or other outpatient visit for the evaluation and management of a new patient, which requires these 3 key components: A problem focused history; A problem focused examination; Straightforward medical decision making. Counseling and/or coordination of care with other physicians, other qualified health care professionals, or agencies are provided consistent with the nature of the problem(s) and the patient's and/or family's needs. Usually, the presenting problem(s) are self limited or minor. Typically, 10 minutes are spent face-to-face with the patient and/or family."
        } ]
      } ],
      "subject": {
        "reference": "Patient/denom-EXM125-FHIR3"
      },
      "period": {
        "start": "2019-05-30T00:00:00-00:00",
        "end": "2019-05-31T00:00:00-00:00"
      }
    },
    "request": {
      "method": "PUT",
      "url": "Encounter/denom-EXM125-FHIR3-1"
    }
  }, {
    "resource": {
      "resourceType": "Patient",
      "id": "denom-EXM125-FHIR3",
      "meta": {
        "profile": [ "http://hl7.org/fhir/us/core/StructureDefinition/us-core-patient" ]
      },
      "extension": [ {
        "url": "http://hl7.org/fhir/us/core/StructureDefinition/us-core-race",
        "extension": [ {
          "url": "ombCategory",
          "valueCoding": {
            "system": "urn:oid:2.16.840.1.113883.6.238",
            "code": "2106-3",
            "display": "White"
          }
        } ]
      }, {
        "url": "http://hl7.org/fhir/us/core/StructureDefinition/us-core-ethnicity",
        "extension": [ {
          "url": "ombCategory",
          "valueCoding": {
            "system": "urn:oid:2.16.840.1.113883.6.238",
            "code": "2186-5",
            "display": "Not Hispanic or Latino"
          }
        } ]
      } ],
      "identifier": [ {
        "use": "usual",
        "type": {
          "coding": [ {
            "system": "http://terminology.hl7.org/CodeSystem/v2-0203",
            "code": "MR",
            "display": "Medical Record Number"
          } ]
        },
        "system": "http://hospital.smarthealthit.org",
        "value": "999999993"
      } ],
      "name": [ {
        "family": "Nomer",
        "given": [ "Miss" ]
      } ],
      "gender": "female",
      "birthDate": "1965-01-01"
    },
    "request": {
      "method": "PUT",
      "url": "Patient/denom-EXM125-FHIR3"
    }
  }, {
    "resource": {
      "resourceType": "Bundle",
      "id": "tests-DiagnosticReport-bundle",
      "type": "transaction",
      "entry": [ {
        "resource": {
          "resourceType": "DiagnosticReport",
          "id": "denom-EXM125-FHIR3-2",
          "meta": {
            "profile": [ "http://hl7.org/fhir/us/core/FHIR3/StructureDefinition-us-core-diagnosticreport-note" ]
          },
          "status": "final",
          "code": {
            "coding": [ {
              "system": "http://loinc.org",
              "code": "24604-1",
              "display": "MG Breast Diagnostic Limited Views"
            } ]
          },
          "subject": {
            "reference": "Patient/denom-EXM125-FHIR3"
          },
          "effectivePeriod": {
            "start": "2016-11-01T00:00:00",
            "end": "2016-11-01T00:00:00"
          }
        },
        "request": {
          "method": "PUT",
          "url": "DiagnosticReport/denom-EXM125-FHIR3-2"
        }
      } ]
    },
    "request": {
      "method": "PUT",
      "url": "tests-DiagnosticReport-bundle"
    }
  }, {
    "resource": {
      "resourceType": "Library",
      "id": "library-EXM125-FHIR3-7.2.000",
      "text": {
        "status": "generated",
        "div": "<div xmlns=\"http://www.w3.org/1999/xhtml\"><table class=\"grid dict\"><tr><th scope=\"row\"><b>Id: </b></th><td style=\"padding-left: 25px; padding-right: 25px;\">library-EXM125-FHIR3-7.2.000</td></tr><tr><th scope=\"row\"><b>Type: </b></th><td style=\"padding-right: 25px;\"> Logic Library </td></tr><tr><th scope=\"row\"><b>Version: </b></th><td style=\"padding-left: 25px; padding-right: 25px;\">7.2.000</td></tr><tr><th scope=\"row\"><b>Status: </b></th><td style=\"padding-left: 25px; padding-right: 25px;\">active</td></tr><tr style=\"vertical-align: top;\"><th rowspan=\"5\" scope=\"row\"><b>Related: </b></th><td style=\"padding-left: 25px; padding-right: 25px;\"><p style=\"margin-bottom: 5px;\"><b>type: </b><span>depends-on</span></p><p style=\"margin-bottom: 5px;\"><b>Resource: </b><br/><span><span style=\"padding-left: 25px;\"><b>reference: </b><span>Library/library-MATGlobalCommonFunctions-FHIR3-2.0.000</span></span></span></p></td></tr><tr style=\"vertical-align: top;\"><td style=\"padding-left: 25px; padding-right: 25px;\"><p style=\"margin-bottom: 5px;\"><b>type: </b><span>depends-on</span></p><p style=\"margin-bottom: 5px;\"><b>Resource: </b><br/><span><span style=\"padding-left: 25px;\"><b>reference: </b><span>Library/library-AdultOutpatientEncounters-FHIR3-1.1.000</span></span></span></p></td></tr><tr style=\"vertical-align: top;\"><td style=\"padding-left: 25px; padding-right: 25px;\"><p style=\"margin-bottom: 5px;\"><b>type: </b><span>depends-on</span></p><p style=\"margin-bottom: 5px;\"><b>Resource: </b><br/><span><span style=\"padding-left: 25px;\"><b>reference: </b><span>Library/library-Hospice-FHIR3-1.0.000</span></span></span></p></td></tr><tr style=\"vertical-align: top;\"><td style=\"padding-left: 25px; padding-right: 25px;\"><p style=\"margin-bottom: 5px;\"><b>type: </b><span>depends-on</span></p><p style=\"margin-bottom: 5px;\"><b>Resource: </b><br/><span><span style=\"padding-left: 25px;\"><b>reference: </b><span>Library/library-FHIRHelpers-3.0.0</span></span></span></p></td></tr><tr style=\"vertical-align: top;\"><td style=\"padding-left: 25px; padding-right: 25px;\"><p style=\"margin-bottom: 5px;\"><b>type: </b><span>depends-on</span></p><p style=\"margin-bottom: 5px;\"><b>Resource: </b><br/><span><span style=\"padding-left: 25px;\"><b>reference: </b><span>Library/library-SupplementalDataElements-FHIR3-1.0.0</span></span></span></p></td></tr><tr style=\"vertical-align: top;\"><th rowspan=\"8\" scope=\"row\"><b>Data Requirements: </b></th><td style=\"padding-left: 25px; padding-right: 25px;\"><div><p style=\"margin-bottom: 5px;\"><b>type: </b><span>Procedure</span></p><p style=\"margin-bottom: 5px;\"><b>code filter:</b><br/><span style=\"padding-left: 25px;\"><b>path: </b><span>code</span></span><br/><span style=\"padding-left: 25px;\"><b>valueset: </b><span>http://cts.nlm.nih.gov/fhir/ValueSet/2.16.840.1.113883.3.464.1003.198.12.1020</span></span></p></div></td></tr><tr style=\"vertical-align: top;\"><td style=\"padding-left: 25px; padding-right: 25px;\"><div><p style=\"margin-bottom: 5px;\"><b>type: </b><span>Condition</span></p><p style=\"margin-bottom: 5px;\"><b>code filter:</b><br/><span style=\"padding-left: 25px;\"><b>path: </b><span>code</span></span><br/><span style=\"padding-left: 25px;\"><b>valueset: </b><span>http://cts.nlm.nih.gov/fhir/ValueSet/2.16.840.1.113883.3.464.1003.198.12.1070</span></span></p></div></td></tr><tr style=\"vertical-align: top;\"><td style=\"padding-left: 25px; padding-right: 25px;\"><div><p style=\"margin-bottom: 5px;\"><b>type: </b><span>Condition</span></p><p style=\"margin-bottom: 5px;\"><b>code filter:</b><br/><span style=\"padding-left: 25px;\"><b>path: </b><span>code</span></span><br/><span style=\"padding-left: 25px;\"><b>valueset: </b><span>http://cts.nlm.nih.gov/fhir/ValueSet/2.16.840.1.113883.3.464.1003.198.12.1071</span></span></p></div></td></tr><tr style=\"vertical-align: top;\"><td style=\"padding-left: 25px; padding-right: 25px;\"><div><p style=\"margin-bottom: 5px;\"><b>type: </b><span>Condition</span></p><p style=\"margin-bottom: 5px;\"><b>code filter:</b><br/><span style=\"padding-left: 25px;\"><b>path: </b><span>code</span></span><br/><span style=\"padding-left: 25px;\"><b>valueset: </b><span>http://cts.nlm.nih.gov/fhir/ValueSet/2.16.840.1.113883.3.464.1003.198.12.1069</span></span></p></div></td></tr><tr style=\"vertical-align: top;\"><td style=\"padding-left: 25px; padding-right: 25px;\"><div><p style=\"margin-bottom: 5px;\"><b>type: </b><span>Condition</span></p><p style=\"margin-bottom: 5px;\"><b>code filter:</b><br/><span style=\"padding-left: 25px;\"><b>path: </b><span>code</span></span><br/><span style=\"padding-left: 25px;\"><b>valueset: </b><span>http://cts.nlm.nih.gov/fhir/ValueSet/2.16.840.1.113883.3.464.1003.198.12.1071</span></span></p></div></td></tr><tr style=\"vertical-align: top;\"><td style=\"padding-left: 25px; padding-right: 25px;\"><div><p style=\"margin-bottom: 5px;\"><b>type: </b><span>Condition</span></p><p style=\"margin-bottom: 5px;\"><b>code filter:</b><br/><span style=\"padding-left: 25px;\"><b>path: </b><span>code</span></span><br/><span style=\"padding-left: 25px;\"><b>valueset: </b><span>http://cts.nlm.nih.gov/fhir/ValueSet/2.16.840.1.113883.3.464.1003.198.12.1068</span></span></p></div></td></tr><tr style=\"vertical-align: top;\"><td style=\"padding-left: 25px; padding-right: 25px;\"><div><p style=\"margin-bottom: 5px;\"><b>type: </b><span>Procedure</span></p><p style=\"margin-bottom: 5px;\"><b>code filter:</b><br/><span style=\"padding-left: 25px;\"><b>path: </b><span>code</span></span><br/><span style=\"padding-left: 25px;\"><b>valueset: </b><span>http://cts.nlm.nih.gov/fhir/ValueSet/2.16.840.1.113883.3.464.1003.198.12.1005</span></span></p></div></td></tr><tr style=\"vertical-align: top;\"><td style=\"padding-left: 25px; padding-right: 25px;\"><div><p style=\"margin-bottom: 5px;\"><b>type: </b><span>DiagnosticReport</span></p><p style=\"margin-bottom: 5px;\"><b>code filter:</b><br/><span style=\"padding-left: 25px;\"><b>path: </b><span>code</span></span><br/><span style=\"padding-left: 25px;\"><b>valueset: </b><span>http://cts.nlm.nih.gov/fhir/ValueSet/2.16.840.1.113883.3.464.1003.108.12.1018</span></span></p></div></td></tr><tr style=\"vertical-align: top;\"><th scope=\"row\"><b>Content: </b></th><td style=\"padding-left: 25px; padding-right: 25px;\"><b>type: </b><span>text/cql</span></td></tr><tr><td colspan=\"2\" style=\"padding-left: 25px; padding-right: 25px;\"><pre><code class=\"language-cql\">library EXM125_FHIR3 version '7.2.000'\n\n/*\nBased on CMS125v7 - Breast Cancer Screening\n*/\n\n/*\nThis example is a work in progress and should not be considered a final specification\nor recommendation for guidance. This example will help guide and direct the process\nof finding conventions and usage patterns that meet the needs of the various stakeholders\nin the measure development community.\n*/\n\nusing FHIR version '3.0.0'\n\ninclude MATGlobalCommonFunctions_FHIR3 version '2.0.000' called Global\ninclude AdultOutpatientEncounters_FHIR3 version '1.1.000' called AdultOutpatientEncounters\ninclude Hospice_FHIR3 version '1.0.000' called Hospice\ninclude FHIRHelpers version '3.0.0' called FHIRHelpers\ninclude SupplementalDataElements_FHIR3 version '1.0.0' called SDE\n\nvalueset &quot;ONC Administrative Sex&quot;: 'http://cts.nlm.nih.gov/fhir/ValueSet/2.16.840.1.113762.1.4.1'\nvalueset &quot;Race&quot;: 'http://cts.nlm.nih.gov/fhir/ValueSet/2.16.840.1.114222.4.11.836'\nvalueset &quot;Ethnicity&quot;: 'http://cts.nlm.nih.gov/fhir/ValueSet/2.16.840.1.114222.4.11.837'\nvalueset &quot;Payer&quot;: 'http://cts.nlm.nih.gov/fhir/ValueSet/2.16.840.1.114222.4.11.3591'\nvalueset &quot;Bilateral Mastectomy&quot;: 'http://cts.nlm.nih.gov/fhir/ValueSet/2.16.840.1.113883.3.464.1003.198.12.1005'\nvalueset &quot;Female&quot;: 'http://cts.nlm.nih.gov/fhir/ValueSet/2.16.840.1.113883.3.560.100.2'\nvalueset &quot;Mammography&quot;: 'http://cts.nlm.nih.gov/fhir/ValueSet/2.16.840.1.113883.3.464.1003.108.12.1018'\nvalueset &quot;Unilateral Mastectomy&quot;: 'http://cts.nlm.nih.gov/fhir/ValueSet/2.16.840.1.113883.3.464.1003.198.12.1020'\nvalueset &quot;History of bilateral mastectomy&quot;: 'http://cts.nlm.nih.gov/fhir/ValueSet/2.16.840.1.113883.3.464.1003.198.12.1068'\nvalueset &quot;Status Post Left Mastectomy&quot;: 'http://cts.nlm.nih.gov/fhir/ValueSet/2.16.840.1.113883.3.464.1003.198.12.1069'\nvalueset &quot;Status Post Right Mastectomy&quot;: 'http://cts.nlm.nih.gov/fhir/ValueSet/2.16.840.1.113883.3.464.1003.198.12.1070'\nvalueset &quot;Left&quot;: 'http://cts.nlm.nih.gov/fhir/ValueSet/2.16.840.1.113883.3.464.1003.122.12.1036'\nvalueset &quot;Right&quot;: 'http://cts.nlm.nih.gov/fhir/ValueSet/2.16.840.1.113883.3.464.1003.122.12.1035'\nvalueset &quot;Unilateral Mastectomy, Unspecified Laterality&quot;: 'http://cts.nlm.nih.gov/fhir/ValueSet/2.16.840.1.113883.3.464.1003.198.12.1071'\n\nparameter &quot;Measurement Period&quot; Interval&lt;DateTime&gt;\n    default Interval[@2019-01-01T00:00:00.0, @2020-01-01T00:00:00.0)\n\ncontext Patient\n\ndefine &quot;SDE Ethnicity&quot;:\n  SDE.&quot;SDE Ethnicity&quot;\n\ndefine &quot;SDE Payer&quot;:\n  SDE.&quot;SDE Payer&quot;\n\ndefine &quot;SDE Race&quot;:\n  SDE.&quot;SDE Race&quot;\n\ndefine &quot;SDE Sex&quot;:\n  SDE.&quot;SDE Sex&quot;\n\ndefine &quot;Denominator&quot;:\n\t\t&quot;Initial Population&quot;\n\ndefine &quot;Unilateral Mastectomy Procedure&quot;:\n\t\t[Procedure: &quot;Unilateral Mastectomy&quot;] UnilateralMastectomyProcedure\n\t\t\t\twhere Global.&quot;Normalize Interval&quot;(UnilateralMastectomyProcedure.performed) ends before day of end of &quot;Measurement Period&quot;\n\t\t\t\t\t\tand UnilateralMastectomyProcedure.status = 'completed'\n\ndefine &quot;Right Mastectomy&quot;:\n\t\t(\n\t\t\t\t( [Condition: &quot;Status Post Right Mastectomy&quot;] C where C.clinicalStatus = 'active' )\n\t\t\t\tunion (\n\t\t\t\t\t\t[Condition: &quot;Unilateral Mastectomy, Unspecified Laterality&quot;] UnilateralMastectomyDiagnosis\n\t\t\t\t\t\t\t\twhere UnilateralMastectomyDiagnosis.bodySite in &quot;Right&quot;\n\t\t\t\t\t\t\t\t\t\tand UnilateralMastectomyDiagnosis.clinicalStatus = 'active'\n\t\t\t\t)\n\t\t) RightMastectomy\n\t\t\t\twhere Global.&quot;Normalize Onset&quot;(RightMastectomy.onset) starts before day of end of &quot;Measurement Period&quot;\n\ndefine &quot;Left Mastectomy&quot;:\n\t\t(\n\t\t    ( [Condition: &quot;Status Post Left Mastectomy&quot;] C where C.clinicalStatus = 'active' )\n\t\t\t\tunion (\n\t\t\t\t\t\t[Condition: &quot;Unilateral Mastectomy, Unspecified Laterality&quot;] UnilateralMastectomyDiagnosis\n\t\t\t\t\t\t\t\twhere UnilateralMastectomyDiagnosis.bodySite in &quot;Left&quot;\n\t\t\t\t\t\t\t\t\t\tand UnilateralMastectomyDiagnosis.clinicalStatus = 'active'\n\t\t\t\t)\n\t\t) LeftMastectomy\n\t\t\t\twhere Global.&quot;Normalize Onset&quot;(LeftMastectomy.onset) starts before day of end of &quot;Measurement Period&quot;\n\ndefine &quot;History Bilateral Mastectomy&quot;:\n\t\t[Condition: &quot;History of bilateral mastectomy&quot;] BilateralMastectomyHistory\n\t\t\t\twhere Global.&quot;Normalize Onset&quot;(BilateralMastectomyHistory.onset) starts before day of end of &quot;Measurement Period&quot;\n\t\t\t\t\t\tand BilateralMastectomyHistory.clinicalStatus = 'active'\n\ndefine &quot;Bilateral Mastectomy Procedure&quot;:\n\t\t[Procedure: &quot;Bilateral Mastectomy&quot;] BilateralMastectomyPerformed\n\t\t\t\twhere Global.&quot;Normalize Interval&quot;(BilateralMastectomyPerformed.performed) ends before day of end of &quot;Measurement Period&quot;\n\t\t\t\t\t\tand BilateralMastectomyPerformed.status = 'completed'\n\ndefine &quot;Numerator&quot;:\n\t\texists (\n\t\t\t\t[DiagnosticReport: &quot;Mammography&quot;] Mammogram\n\t\t\t\t\t\twhere ( Global.&quot;Normalize Interval&quot;(Mammogram.effective) ends 27 months or less before day of end of &quot;Measurement Period&quot; )\n\t\t\t\t\t\t\t\tand Mammogram.status in { 'final', 'amended', 'corrected', 'appended' }\n\t\t)\n\ndefine &quot;Denominator Exclusion&quot;:\n\t\tHospice.&quot;Has Hospice&quot;(&quot;Measurement Period&quot;)\n\t\t\t\tor ( Count(&quot;Unilateral Mastectomy Procedure&quot;) = 2 )\n\t\t\t\tor ( exists &quot;Right Mastectomy&quot; and exists &quot;Left Mastectomy&quot; )\n\t\t\t\tor exists &quot;History Bilateral Mastectomy&quot;\n\t\t\t\tor exists &quot;Bilateral Mastectomy Procedure&quot;\n\ndefine &quot;Initial Population&quot;:\n\t\tPatient.gender = 'female'\n\t\t\t\tand Global.&quot;CalendarAgeInYearsAt&quot;(FHIRHelpers.ToDate(Patient.birthDate), start of &quot;Measurement Period&quot;) in Interval[51, 74]\n\t\t\t\tand exists AdultOutpatientEncounters.&quot;Qualifying Encounters&quot;(&quot;Measurement Period&quot;)\n</code></pre>\n                    \n                    \n                </td>\n            </tr>\n        \n    </table>\n</div>"
      },
      "extension": [ {
        "url": "http://hl7.org/fhir/us/cqfmeasures/StructureDefinition/cqfm-softwaresystem",
        "valueReference": {
          "reference": "cqf-tooling"
        }
      } ],
      "version": "7.2.000",
      "name": "EXM125_FHIR3",
      "status": "active",
      "experimental": true,
      "type": {
        "coding": [ {
          "system": "http://hl7.org/fhir/codesystem-library-type.html",
          "code": "logic-library"
        } ]
      },
      "content": [ {
        "contentType": "text/cql",
        "data": ""
      } ]
    },
    "request": {
      "method": "PUT",
      "url": "Library/library-EXM125-FHIR3-7.2.000"
    }
  }, {
    "resource": {
      "resourceType": "MeasureReport",
      "id": "measurereport-denom-EXM125-FHIR3",
      "contained": [ {
        "resourceType": "Bundle",
        "id": "be282bde-ab4f-4b47-8021-529ca5deff4e",
        "type": "collection",
        "entry": [ {
          "fullUrl": "842aeee8-80e3-49c5-b022-c37eee772a25",
          "resource": {
            "resourceType": "List",
            "id": "842aeee8-80e3-49c5-b022-c37eee772a25",
            "title": "numerator",
            "entry": [ {
              "item": {
                "reference": "denom-EXM125-FHIR3-2"
              }
            } ]
          }
        }, {
          "fullUrl": "Patient/denom-EXM125-FHIR3",
          "resource": {
            "resourceType": "Patient",
            "id": "denom-EXM125-FHIR3",
            "meta": {
              "profile": [ "http://hl7.org/fhir/us/core/StructureDefinition/us-core-patient" ]
            },
            "extension": [ {
              "url": "http://hl7.org/fhir/us/core/StructureDefinition/us-core-race",
              "extension": [ {
                "url": "ombCategory",
                "valueCoding": {
                  "system": "urn:oid:2.16.840.1.113883.6.238",
                  "code": "2106-3",
                  "display": "White"
                }
              } ]
            }, {
              "url": "http://hl7.org/fhir/us/core/StructureDefinition/us-core-ethnicity",
              "extension": [ {
                "url": "ombCategory",
                "valueCoding": {
                  "system": "urn:oid:2.16.840.1.113883.6.238",
                  "code": "2186-5",
                  "display": "Not Hispanic or Latino"
                }
              } ]
            } ],
            "identifier": [ {
              "use": "usual",
              "type": {
                "coding": [ {
                  "system": "http://terminology.hl7.org/CodeSystem/v2-0203",
                  "code": "MR",
                  "display": "Medical Record Number"
                } ]
              },
              "system": "http://hospital.smarthealthit.org",
              "value": "999999993"
            } ],
            "name": [ {
              "family": "Nomer",
              "given": [ "Miss" ]
            } ],
            "gender": "female",
            "birthDate": "1965-01-01"
          }
        }, {
          "fullUrl": "DiagnosticReport/denom-EXM125-FHIR3-2",
          "resource": {
            "resourceType": "DiagnosticReport",
            "id": "denom-EXM125-FHIR3-2",
            "meta": { },
            "status": "final",
            "code": {
              "coding": [ {
                "system": "http://loinc.org",
                "code": "24604-1",
                "display": "MG Breast Diagnostic Limited Views"
              } ]
            },
            "subject": {
              "reference": "Patient/denom-EXM125-FHIR3"
            },
            "effectivePeriod": {
              "start": "2016-11-01T00:00:00",
              "end": "2016-11-01T00:00:00"
            }
          }
        }, {
          "fullUrl": "cfb8c9dd-3a9a-44cf-b0b0-e28322627712",
          "resource": {
            "resourceType": "List",
            "id": "cfb8c9dd-3a9a-44cf-b0b0-e28322627712",
            "title": "initial-population",
            "entry": [ {
              "item": {
                "reference": "denom-EXM125-FHIR3"
              }
            }, {
              "item": {
                "reference": "denom-EXM125-FHIR3-1"
              }
            } ]
          }
        }, {
          "fullUrl": "Encounter/denom-EXM125-FHIR3-1",
          "resource": {
            "resourceType": "Encounter",
            "id": "denom-EXM125-FHIR3-1",
            "meta": {
              "profile": [ "http://hl7.org/fhir/us/core/StructureDefinition/us-core-encounter" ]
            },
            "status": "finished",
            "class": {
              "system": "http://terminology.hl7.org/CodeSystem/v3-ActCode",
              "code": "AMB",
              "display": "ambulatory"
            },
            "type": [ {
              "coding": [ {
                "system": "http://www.ama-assn.org/go/cpt",
                "code": "99201",
                "display": "Office or other outpatient visit for the evaluation and management of a new patient, which requires these 3 key components: A problem focused history; A problem focused examination; Straightforward medical decision making. Counseling and/or coordination of care with other physicians, other qualified health care professionals, or agencies are provided consistent with the nature of the problem(s) and the patient's and/or family's needs. Usually, the presenting problem(s) are self limited or minor. Typically, 10 minutes are spent face-to-face with the patient and/or family."
              } ]
            } ],
            "subject": {
              "reference": "Patient/denom-EXM125-FHIR3"
            },
            "period": {
              "start": "2019-05-30T00:00:00-00:00",
              "end": "2019-05-31T00:00:00-00:00"
            }
          }
        } ]
      } ],
      "status": "complete",
      "type": "individual",
      "measure": {
        "reference": "Measure/measure-EXM125-FHIR3-7.2.000"
      },
      "patient": {
        "reference": "Patient/denom-EXM125-FHIR3"
      },
      "period": {
        "start": "2019-01-01T00:00:00-07:00",
        "end": "2019-12-31T00:00:00-07:00"
      },
      "group": [ {
        "identifier": {
          "value": "group-1"
        },
        "population": [ {
          "identifier": {
            "value": "initial-population-identifier"
          },
          "code": {
            "coding": [ {
              "system": "http://terminology.hl7.org/CodeSystem/measure-population",
              "code": "initial-population",
              "display": "Initial Population"
            } ]
          },
          "count": 1
        }, {
          "identifier": {
            "value": "numerator-identifier"
          },
          "code": {
            "coding": [ {
              "system": "http://terminology.hl7.org/CodeSystem/measure-population",
              "code": "numerator",
              "display": "Numerator"
            } ]
          },
          "count": 0
        }, {
          "identifier": {
            "value": "denominator-identifier"
          },
          "code": {
            "coding": [ {
              "system": "http://terminology.hl7.org/CodeSystem/measure-population",
              "code": "denominator",
              "display": "Denominator"
            } ]
          },
          "count": 1
        }, {
          "identifier": {
            "value": "denominator-exclusions-identifier"
          },
          "code": {
            "coding": [ {
              "system": "http://terminology.hl7.org/CodeSystem/measure-population",
              "code": "denominator-exclusion",
              "display": "Denominator Exclusion"
            } ]
          },
          "count": 0
        } ],
        "measureScore": 0.0
      } ],
      "evaluatedResources": {
        "reference": "#be282bde-ab4f-4b47-8021-529ca5deff4e"
      }
    },
    "request": {
      "method": "PUT",
      "url": "MeasureReport/measurereport-denom-EXM125-FHIR3"
    }
  }, {
    "resource": {
      "resourceType": "Encounter",
      "id": "numer-EXM125-FHIR3-3",
      "meta": {
        "profile": [ "http://hl7.org/fhir/us/core/StructureDefinition/us-core-encounter" ]
      },
      "status": "finished",
      "class": {
        "system": "http://terminology.hl7.org/CodeSystem/v3-ActCode",
        "code": "AMB",
        "display": "ambulatory"
      },
      "type": [ {
        "coding": [ {
          "system": "http://www.ama-assn.org/go/cpt",
          "code": "99201",
          "display": "Office or other outpatient visit for the evaluation and management of a new patient, which requires these 3 key components: A problem focused history; A problem focused examination; Straightforward medical decision making. Counseling and/or coordination of care with other physicians, other qualified health care professionals, or agencies are provided consistent with the nature of the problem(s) and the patient's and/or family's needs. Usually, the presenting problem(s) are self limited or minor. Typically, 10 minutes are spent face-to-face with the patient and/or family."
        } ]
      } ],
      "subject": {
        "reference": "Patient/numer-EXM125-FHIR3"
      },
      "period": {
        "start": "2019-05-30T00:00:00-00:00",
        "end": "2019-05-31T00:00:00-00:00"
      }
    },
    "request": {
      "method": "PUT",
      "url": "Encounter/numer-EXM125-FHIR3-3"
    }
  }, {
    "resource": {
      "resourceType": "Bundle",
      "id": "tests-Patient-bundle",
      "type": "transaction",
      "entry": [ {
        "resource": {
          "resourceType": "Patient",
          "id": "denom-EXM125-FHIR3",
          "meta": {
            "profile": [ "http://hl7.org/fhir/us/core/StructureDefinition/us-core-patient" ]
          },
          "extension": [ {
            "url": "http://hl7.org/fhir/us/core/StructureDefinition/us-core-race",
            "extension": [ {
              "url": "ombCategory",
              "valueCoding": {
                "system": "urn:oid:2.16.840.1.113883.6.238",
                "code": "2106-3",
                "display": "White"
              }
            } ]
          }, {
            "url": "http://hl7.org/fhir/us/core/StructureDefinition/us-core-ethnicity",
            "extension": [ {
              "url": "ombCategory",
              "valueCoding": {
                "system": "urn:oid:2.16.840.1.113883.6.238",
                "code": "2186-5",
                "display": "Not Hispanic or Latino"
              }
            } ]
          } ],
          "identifier": [ {
            "use": "usual",
            "type": {
              "coding": [ {
                "system": "http://terminology.hl7.org/CodeSystem/v2-0203",
                "code": "MR",
                "display": "Medical Record Number"
              } ]
            },
            "system": "http://hospital.smarthealthit.org",
            "value": "999999993"
          } ],
          "name": [ {
            "family": "Nomer",
            "given": [ "Miss" ]
          } ],
          "gender": "female",
          "birthDate": "1965-01-01"
        },
        "request": {
          "method": "PUT",
          "url": "Patient/denom-EXM125-FHIR3"
        }
      } ]
    },
    "request": {
      "method": "PUT",
      "url": "tests-Patient-bundle"
    }
  }, {
    "resource": {
      "resourceType": "DiagnosticReport",
      "id": "numer-EXM125-FHIR3-2",
      "meta": {
        "profile": [ "http://hl7.org/fhir/us/core/FHIR3/StructureDefinition-us-core-diagnosticreport-note" ]
      },
      "status": "final",
      "code": {
        "coding": [ {
          "system": "http://loinc.org",
          "code": "24604-1",
          "display": "MG Breast Diagnostic Limited Views"
        } ]
      },
      "subject": {
        "reference": "Patient/numer-EXM125-FHIR3"
      },
      "effectivePeriod": {
        "start": "2018-05-30T00:00:00-00:00",
        "end": "2018-11-30T00:00:00-00:00"
      }
    },
    "request": {
      "method": "PUT",
      "url": "DiagnosticReport/numer-EXM125-FHIR3-2"
    }
  } ]
}