{
  "resourceType": "Bundle",
  "id": "Cathy-Hanson-Walter-488-Encounter-4029",
  "type": "transaction",
  "entry": [
    {
      "fullUrl": "http://localhost:8080/cqf-ruler/baseDstu3/Encounter/Encounter-4029",
      "resource": {
        "resourceType": "Encounter",
        "id": "Encounter-4029",
        "meta": {
          "profile": [
            "http://hl7.org/fhir/us/hedis/StructureDefinition/hedis-encounter"
          ]
        },
        "extension": [
          {
            "url": "http://mihin.org/extension/copyright",
            "valueString": "Copyright 2014-2018 Michigan Health Information Network Shared Services. Licensed under the Apache License, Version 2.0 (the 'License'); you may not use this file except in compliance with the License. You may obtain a copy of the License at  http://www.apache.org/licenses/LICENSE-2.0.  Unless required by applicable law or agreed to in writing, software distributed under the License is distributed on an 'AS IS' BASIS, WITHOUT WARRANTIES OR CONDITIONS OF ANY KIND, either express or implied. See the License for the specific language governing permissions and limitations under the License."
          }
        ],
        "status": "finished",
        "class": {
          "system": "http://hl7.org/fhir/encounter-class",
          "code": "ambulatory",
          "display": "ambulatory"
        },
        "type": [
          {
            "coding": [
              {
                "system": "http://snomed.info/sct",
                "code": "185345009",
                "display": "Encounter for symptom"
              }
            ]
          }
        ],
        "subject": {
          "reference": "Patient/Patient-488",
          "display": "Cathy Hanson Walter"
        },
        "participant": [
          {
            "period": {
              "start": "2019-03-13T21:20:00-04:00",
              "end": "2019-03-13T22:30:00-04:00"
            },
            "individual": {
              "reference": "Practitioner/Practitioner-71",
              "display": "Alfred Blair Ballard MD"
            }
          }
        ],
        "period": {
          "start": "2019-03-13T21:20:00-04:00",
          "end": "2019-03-13T22:30:00-04:00"
        },
        "location": [
          {
            "location": {
              "reference": "Location/Location-212",
              "display": "Westland Memorial Hospital"
            }
          }
        ],
        "serviceProvider": {
          "reference": "Organization/Organization-1023",
          "display": "Westland Memorial Hospital"
        }
      },
      "request": {
        "method": "PUT",
        "url": "http://localhost:8080/cqf-ruler/baseDstu3/Encounter/Encounter-4029"
      }
    },
    {
      "fullUrl": "http://localhost:8080/cqf-ruler/baseDstu3/Procedure/Procedure-117812",
      "resource": {
        "resourceType": "Procedure",
        "id": "Procedure-117812",
        "meta": {
          "profile": [
            "http://hl7.org/fhir/us/hedis/StructureDefinition/hedis-procedure"
          ]
        },
        "extension": [
          {
            "url": "http://mihin.org/extension/copyright",
            "valueString": "Copyright 2014-2018 Michigan Health Information Network Shared Services. Licensed under the Apache License, Version 2.0 (the 'License'); you may not use this file except in compliance with the License. You may obtain a copy of the License at  http://www.apache.org/licenses/LICENSE-2.0.  Unless required by applicable law or agreed to in writing, software distributed under the License is distributed on an 'AS IS' BASIS, WITHOUT WARRANTIES OR CONDITIONS OF ANY KIND, either express or implied. See the License for the specific language governing permissions and limitations under the License."
          }
        ],
        "identifier": [
          {
            "use": "official",
            "system": "mihin.org/fhir/sid/elementId",
            "value": "cf73f9d9-6637-4381-866c-e57c80058485"
          }
        ],
        "status": "completed",
        "code": {
          "coding": [
            {
              "system": "http://www.ama-assn.org/go/cpt",
              "code": "45330"
            }
          ]
        },
        "subject": {
          "reference": "Patient/Patient-488",
          "display": "Cathy Hanson Walter"
        },
        "context": {
          "reference": "Encounter/Encounter-4029",
          "display": "Sigmoidoscopy_Encounter"
        },
        "performedPeriod": {
          "start": "2019-03-13T21:20:00-04:00",
          "end": "2019-03-13T22:30:00-04:00"
        },
        "performer": [
          {
            "actor": {
              "reference": "Practitioner/Practitioner-71",
              "display": "Alfred Blair Ballard MD"
            }
          }
        ],
        "location": {
          "reference": "Location/Location-212",
          "display": "Westland Memorial Hospital"
        }
      },
      "request": {
        "method": "PUT",
        "url": "http://localhost:8080/cqf-ruler/baseDstu3/Procedure/Procedure-117812"
      }
    },
    {
      "fullUrl": "http://localhost:8080/cqf-ruler/baseDstu3/Observation/Observation-117814",
      "resource": {
        "resourceType": "Observation",
        "id": "Observation-117814",
        "meta": {
          "profile": [
            "http://hl7.org/fhir/us/hedis/StructureDefinition/hedis-observation"
          ]
        },
        "extension": [
          {
            "url": "http://mihin.org/extension/copyright",
            "valueString": "Copyright 2014-2018 Michigan Health Information Network Shared Services. Licensed under the Apache License, Version 2.0 (the 'License'); you may not use this file except in compliance with the License. You may obtain a copy of the License at  http://www.apache.org/licenses/LICENSE-2.0.  Unless required by applicable law or agreed to in writing, software distributed under the License is distributed on an 'AS IS' BASIS, WITHOUT WARRANTIES OR CONDITIONS OF ANY KIND, either express or implied. See the License for the specific language governing permissions and limitations under the License."
          }
        ],
        "identifier": [
          {
            "use": "official",
            "system": "mihin.org/fhir/sid/elementId",
            "value": "f536c75e-b9ad-4f43-ba90-b3fc5527ad15"
          }
        ],
        "status": "final",
        "category": [
          {
            "coding": [
              {
                "system": "http://hl7.org/fhir/observation-category",
                "code": "exam",
                "display": "Exam"
              }
            ]
          }
        ],
        "code": {
          "coding": [
            {
              "system": "http://www.ama-assn.org/go/cpt",
              "code": "45332",
              "display": "Sigmoidoscopy, flexible; with removal of foreign body(s)"
            }
          ]
        },
        "subject": {
          "reference": "Patient/Patient-488",
          "display": "Cathy Hanson Walter"
        },
        "context": {
          "reference": "Encounter/Encounter-4029",
          "display": "Sigmoidoscopy_Encounter"
        },
        "effectiveDateTime": "2019-03-13T22:30:00-04:00",
        "performer": [
          {
            "reference": "Practitioner/Practitioner-71",
            "display": "Alfred Blair Ballard MD"
          }
        ],
        "valueString": "POSITIVE"
      },
      "request": {
        "method": "PUT",
        "url": "http://localhost:8080/cqf-ruler/baseDstu3/Observation/Observation-117814"
      }
    },
    {
      "fullUrl": "http://localhost:8080/cqf-ruler/baseDstu3/DiagnosticReport/DiagnosticReport-117815",
      "resource": {
        "resourceType": "DiagnosticReport",
        "id": "DiagnosticReport-117815",
        "meta": {
          "profile": [
            "http://hl7.org/fhir/us/hedis/StructureDefinition/hedis-diagnosticreport"
          ]
        },
        "extension": [
          {
            "url": "http://mihin.org/extension/copyright",
            "valueString": "Copyright 2014-2018 Michigan Health Information Network Shared Services. Licensed under the Apache License, Version 2.0 (the 'License'); you may not use this file except in compliance with the License. You may obtain a copy of the License at  http://www.apache.org/licenses/LICENSE-2.0.  Unless required by applicable law or agreed to in writing, software distributed under the License is distributed on an 'AS IS' BASIS, WITHOUT WARRANTIES OR CONDITIONS OF ANY KIND, either express or implied. See the License for the specific language governing permissions and limitations under the License."
          }
        ],
        "identifier": [
          {
            "use": "official",
            "system": "mihin.org/fhir/sid/elementId",
            "value": "0fae1044-0481-4af5-9727-1cb052dce93f"
          }
        ],
        "status": "final",
        "code": {
          "coding": [
            {
              "system": "http://snomed.info/sct",
              "code": "112870002",
              "display": "Flexible fiberoptic sigmoidoscopy for removal of foreign body"
            }
          ]
        },
        "subject": {
          "reference": "Patient/Patient-488",
          "display": "Cathy Hanson Walter"
        },
        "context": {
          "reference": "Encounter/Encounter-4029",
          "display": "Sigmoidoscopy_Encounter"
        },
        "effectivePeriod": {
          "start": "2019-03-13T22:30:00-04:00",
          "end": "2019-03-13T22:30:00-04:00"
        },
        "issued": "2019-03-13T22:30:00.000-04:00",
        "result": [
          {
            "reference": "Observation/Observation-117814",
            "display": "Positive_Sigmoidoscopy_Diagnostic_Report_Observation_1"
          }
        ]
      },
      "request": {
        "method": "PUT",
        "url": "http://localhost:8080/cqf-ruler/baseDstu3/DiagnosticReport/DiagnosticReport-117815"
      }
    }
  ]
}