{
  "resourceType": "Bundle",
  "id": "Margaret-Louise-James-494-Encounter-4110",
  "type": "transaction",
  "entry": [
    {
      "fullUrl": "http://localhost:8080/cqf-ruler/baseDstu3/Encounter/Encounter-4110",
      "resource": {
        "resourceType": "Encounter",
        "id": "Encounter-4110",
        "meta": {
          "profile": [
            "http://hl7.org/fhir/us/hedis/StructureDefinition/hedis-encounter"
          ]
        },
        "extension": [
          {
            "url": "http://mihin.org/extension/copyright",
            "valueString": "Copyright 2014-2018 Michigan Health Information Network Shared Services. Licensed under the Apache License, Version 2.0 (the 'License'); you may not use this file except in compliance with the License. You may obtain a copy of the License at  http://www.apache.org/licenses/LICENSE-2.0.  Unless required by applicable law or agreed to in writing, software distributed under the License is distributed on an 'AS IS' BASIS, WITHOUT WARRANTIES OR CONDITIONS OF ANY KIND, either express or implied. See the License for the specific language governing permissions and limitations under the License."
          }
        ],
        "status": "finished",
        "class": {
          "system": "http://hl7.org/fhir/encounter-class",
          "code": "ambulatory",
          "display": "ambulatory"
        },
        "type": [
          {
            "coding": [
              {
                "system": "http://snomed.info/sct",
                "code": "428191000124101",
                "display": "Documentation of current medications"
              }
            ]
          }
        ],
        "subject": {
          "reference": "Patient/Patient-494",
          "display": "Margaret Louise James"
        },
        "participant": [
          {
            "period": {
              "start": "2019-03-16T01:00:00-04:00",
              "end": "2019-03-16T01:00:00-04:00"
            },
            "individual": {
              "reference": "Practitioner/Practitioner-14",
              "display": "Maria Melton Sanchez MD"
            }
          }
        ],
        "period": {
          "start": "2019-03-16T01:00:00-04:00",
          "end": "2019-03-16T01:00:00-04:00"
        },
        "location": [
          {
            "location": {
              "reference": "Location/Location-124",
              "display": "Gift of Mercy Hospital"
            }
          }
        ],
        "serviceProvider": {
          "reference": "Organization/Organization-1005",
          "display": "Gift of Mercy Hospital"
        }
      },
      "request": {
        "method": "PUT",
        "url": "http://localhost:8080/cqf-ruler/baseDstu3/Encounter/Encounter-4110"
      }
    },
    {
      "fullUrl": "http://localhost:8080/cqf-ruler/baseDstu3/Task/Task-120404",
      "resource": {
        "resourceType": "Task",
        "id": "Task-120404",
        "extension": [
          {
            "url": "http://mihin.org/extension/copyright",
            "valueString": "Copyright 2014-2018 Michigan Health Information Network Shared Services. Licensed under the Apache License, Version 2.0 (the 'License'); you may not use this file except in compliance with the License. You may obtain a copy of the License at  http://www.apache.org/licenses/LICENSE-2.0.  Unless required by applicable law or agreed to in writing, software distributed under the License is distributed on an 'AS IS' BASIS, WITHOUT WARRANTIES OR CONDITIONS OF ANY KIND, either express or implied. See the License for the specific language governing permissions and limitations under the License."
          }
        ],
        "status": "accepted",
        "intent": "original-order",
        "code": {
          "coding": [
            {
              "system": "SNOMED-CT",
              "code": "430193006",
              "display": "Medication Reconciliation (procedure)"
            }
          ]
        },
        "description": "Care_Plan_Start Task 1",
        "for": {
          "reference": "Patient/Patient-494",
          "display": "Margaret Louise James"
        },
        "context": {
          "reference": "Encounter/Encounter-4110",
          "display": "Ambulatory_Encounter"
        },
        "executionPeriod": {
          "start": "2019-03-16T01:00:00-04:00",
          "end": "2019-03-16T01:00:00-04:00"
        },
        "authoredOn": "2019-03-16T01:00:00-04:00",
        "requester": {
          "agent": {
            "reference": "Practitioner/Practitioner-14",
            "display": "Maria Melton Sanchez MD"
          },
          "onBehalfOf": {
            "reference": "Organization/Organization-1005",
            "display": "Gift of Mercy Hospital"
          }
        }
      },
      "request": {
        "method": "PUT",
        "url": "http://localhost:8080/cqf-ruler/baseDstu3/Task/Task-120404"
      }
    },
    {
      "fullUrl": "http://localhost:8080/cqf-ruler/baseDstu3/CarePlan/CarePlan-120403",
      "resource": {
        "resourceType": "CarePlan",
        "id": "CarePlan-120403",
        "extension": [
          {
            "url": "http://mihin.org/extension/copyright",
            "valueString": "Copyright 2014-2018 Michigan Health Information Network Shared Services. Licensed under the Apache License, Version 2.0 (the 'License'); you may not use this file except in compliance with the License. You may obtain a copy of the License at  http://www.apache.org/licenses/LICENSE-2.0.  Unless required by applicable law or agreed to in writing, software distributed under the License is distributed on an 'AS IS' BASIS, WITHOUT WARRANTIES OR CONDITIONS OF ANY KIND, either express or implied. See the License for the specific language governing permissions and limitations under the License."
          }
        ],
        "identifier": [
          {
            "use": "official",
            "system": "mihin.org/fhir/sid/elementId",
            "value": "9c3e1d9c-b9b5-444e-bd81-7f81dabb80d2"
          }
        ],
        "status": "active",
        "category": [
          {
            "coding": [
              {
                "system": "http://snomed.info/sct",
                "code": "430193006",
                "display": "Medication Reconciliation (procedure)"
              }
            ]
          }
        ],
        "subject": {
          "reference": "Patient/Patient-494",
          "display": "Margaret Louise James"
        },
        "context": {
          "reference": "Encounter/Encounter-4110",
          "display": "Ambulatory_Encounter"
        },
        "period": {
          "start": "2019-03-16T01:00:00-04:00",
          "end": "2019-03-16T01:00:00-04:00"
        },
        "author": [
          {
            "reference": "Practitioner/Practitioner-14",
            "display": "Maria Melton Sanchez MD"
          }
        ],
        "activity": [
          {
            "reference": {
              "reference": "Task/Task-120404",
              "display": "Care_Plan_Start Task 1"
            }
          }
        ]
      },
      "request": {
        "method": "PUT",
        "url": "http://localhost:8080/cqf-ruler/baseDstu3/CarePlan/CarePlan-120403"
      }
    },
    {
      "fullUrl": "http://localhost:8080/cqf-ruler/baseDstu3/Procedure/Procedure-120405",
      "resource": {
        "resourceType": "Procedure",
        "id": "Procedure-120405",
        "meta": {
          "profile": [
            "http://hl7.org/fhir/us/hedis/StructureDefinition/hedis-procedure"
          ]
        },
        "extension": [
          {
            "url": "http://mihin.org/extension/copyright",
            "valueString": "Copyright 2014-2018 Michigan Health Information Network Shared Services. Licensed under the Apache License, Version 2.0 (the 'License'); you may not use this file except in compliance with the License. You may obtain a copy of the License at  http://www.apache.org/licenses/LICENSE-2.0.  Unless required by applicable law or agreed to in writing, software distributed under the License is distributed on an 'AS IS' BASIS, WITHOUT WARRANTIES OR CONDITIONS OF ANY KIND, either express or implied. See the License for the specific language governing permissions and limitations under the License."
          }
        ],
        "identifier": [
          {
            "use": "official",
            "system": "mihin.org/fhir/sid/elementId",
            "value": "2fd9fa6d-fac7-446d-ad1c-3613f393333f"
          }
        ],
        "status": "completed",
        "code": {
          "coding": [
            {
              "system": "http://snomed.info/sct",
              "code": "430193006",
              "display": "Medication Reconciliation (procedure)"
            }
          ]
        },
        "subject": {
          "reference": "Patient/Patient-494",
          "display": "Margaret Louise James"
        },
        "context": {
          "reference": "Encounter/Encounter-4110",
          "display": "Ambulatory_Encounter"
        },
        "performedPeriod": {
          "start": "2019-03-16T01:00:00-04:00",
          "end": "2019-03-16T01:00:00-04:00"
        },
        "performer": [
          {
            "actor": {
              "reference": "Practitioner/Practitioner-14",
              "display": "Maria Melton Sanchez MD"
            }
          }
        ],
        "location": {
          "reference": "Location/Location-124",
          "display": "Gift of Mercy Hospital"
        }
      },
      "request": {
        "method": "PUT",
        "url": "http://localhost:8080/cqf-ruler/baseDstu3/Procedure/Procedure-120405"
      }
    }
  ]
}