{
  "resourceType": "Bundle",
  "id": "tests-numer-EXM130-FHIR4-bundle",
  "type": "transaction",
  "entry": [
    {
      "resource": {
        "resourceType": "Encounter",
        "id": "numer-EXM130-FHIR4-4",
        "meta": {
          "profile": [
            "http://hl7.org/fhir/us/core/StructureDefinition/us-core-encounter"
          ]
        },
        "status": "finished",
        "class": {
          "system": "http://terminology.hl7.org/CodeSystem/v3-ActCode",
          "code": "AMB",
          "display": "ambulatory"
        },
        "type": [
          {
            "coding": [
              {
                "system": "http://www.ama-assn.org/go/cpt",
                "code": "99201",
                "display": "Office or other outpatient visit for the evaluation and management of a new patient, which requires these 3 key components: A problem focused history; A problem focused examination; Straightforward medical decision making. Counseling and/or coordination of care with other physicians, other qualified health care professionals, or agencies are provided consistent with the nature of the problem(s) and the patient's and/or family's needs. Usually, the presenting problem(s) are self limited or minor. Typically, 10 minutes are spent face-to-face with the patient and/or family."
              }
            ]
          }
        ],
        "subject": {
          "reference": "Patient/numer-EXM130-FHIR4"
        },
        "period": {
          "start": "2019-05-30T00:00:00.0",
          "end": "2019-05-31T00:00:00.0"
        }
      },
      "request": {
        "method": "PUT",
        "url": "Encounter/numer-EXM130-FHIR4-4"
      }
    },
    {
      "resource": {
        "resourceType": "MeasureReport",
        "id": "measurereport-numer-EXM130-FHIR4",
        "contained": [
          {
            "resourceType": "Bundle",
            "id": "5c81f095-5b76-43ca-aef9-64fc8d966fc9",
            "type": "collection",
            "entry": [
              {
                "fullUrl": "e94b1008-48ed-4453-92b9-e45783e8d8fd",
                "resource": {
                  "resourceType": "List",
                  "id": "e94b1008-48ed-4453-92b9-e45783e8d8fd",
                  "title": "initial-population",
                  "entry": [
                    {
                      "item": {
                        "reference": "numer-EXM130-FHIR4"
                      }
                    },
                    {
                      "item": {
                        "reference": "numer-EXM130-FHIR4-4"
                      }
                    }
                  ]
                }
              },
              {
                "fullUrl": "e207b45d-038c-44af-a551-0243745ca7e7",
                "resource": {
                  "resourceType": "List",
                  "id": "e207b45d-038c-44af-a551-0243745ca7e7",
                  "title": "numerator",
                  "entry": [
                    {
                      "item": {
                        "reference": "numer-EXM130-FHIR4-1"
                      }
                    }
                  ]
                }
              },
              {
                "fullUrl": "Patient/numer-EXM130-FHIR4",
                "resource": {
                  "resourceType": "Patient",
                  "id": "numer-EXM130-FHIR4",
                  "meta": {
                    "versionId": "1",
                    "lastUpdated": "2020-01-29T16:25:20.081-07:00",
                    "profile": [
                      "http://hl7.org/fhir/us/core/StructureDefinition/us-core-patient"
                    ]
                  },
                  "text": {
                    "status": "generated",
                    "div": "<div xmlns=\"http://www.w3.org/1999/xhtml\"><div class=\"hapiHeaderText\">Don <b>BLITZ </b></div><table class=\"hapiPropertyTable\"><tbody><tr><td>Identifier</td><td>999999992</td></tr><tr><td>Date of birth</td><td><span>01 January 1965</span></td></tr></tbody></table></div>"
                  },
                  "extension": [
                    {
                      "url": "http://hl7.org/fhir/us/core/StructureDefinition/us-core-race",
                      "extension": [
                        {
                          "url": "ombCategory",
                          "valueCoding": {
                            "system": "urn:oid:2.16.840.1.113883.6.238",
                            "code": "2028-9",
                            "display": "Asian"
                          }
                        }
                      ]
                    },
                    {
                      "url": "http://hl7.org/fhir/us/core/StructureDefinition/us-core-ethnicity",
                      "extension": [
                        {
                          "url": "ombCategory",
                          "valueCoding": {
                            "system": "urn:oid:2.16.840.1.113883.6.238",
                            "code": "2135-2",
                            "display": "Hispanic or Latino"
                          }
                        }
                      ]
                    }
                  ],
                  "identifier": [
                    {
                      "use": "usual",
                      "type": {
                        "coding": [
                          {
                            "system": "http://terminology.hl7.org/CodeSystem/v2-0203",
                            "code": "MR",
                            "display": "Medical Record Number"
                          }
                        ]
                      },
                      "system": "http://hospital.smarthealthit.org",
                      "value": "999999992"
                    }
                  ],
                  "name": [
                    {
                      "family": "Blitz",
                      "given": [
                        "Don"
                      ]
                    }
                  ],
                  "gender": "male",
                  "birthDate": "1965-01-01"
                }
              },
              {
                "fullUrl": "Encounter/numer-EXM130-FHIR4-4",
                "resource": {
                  "resourceType": "Encounter",
                  "id": "numer-EXM130-FHIR4-4",
                  "meta": {
                    "versionId": "1",
                    "lastUpdated": "2020-01-29T16:25:20.081-07:00",
                    "profile": [
                      "http://hl7.org/fhir/us/core/StructureDefinition/us-core-encounter"
                    ]
                  },
                  "status": "finished",
                  "class": {
                    "system": "http://terminology.hl7.org/CodeSystem/v3-ActCode",
                    "code": "AMB",
                    "display": "ambulatory"
                  },
                  "type": [
                    {
                      "coding": [
                        {
                          "system": "http://www.ama-assn.org/go/cpt",
                          "code": "99201",
                          "display": "Office or other outpatient visit for the evaluation and management of a new patient, which requires these 3 key components: A problem focused history; A problem focused examination; Straightforward medical decision making. Counseling and/or coordination of care with other physicians, other qualified health care professionals, or agencies are provided consistent with the nature of the problem(s) and the patient's and/or family's needs. Usually, the presenting problem(s) are self limited or minor. Typically, 10 minutes are spent face-to-face with the patient and/or family."
                        }
                      ]
                    }
                  ],
                  "subject": {
                    "reference": "Patient/numer-EXM130-FHIR4"
                  },
                  "period": {
                    "start": "2019-05-30T00:00:00.0",
                    "end": "2019-05-31T00:00:00.0"
                  }
                }
              },
              {
                "fullUrl": "Procedure/numer-EXM130-FHIR4-1",
                "resource": {
                  "resourceType": "Procedure",
                  "id": "numer-EXM130-FHIR4-1",
                  "meta": {
                    "versionId": "1",
                    "lastUpdated": "2020-01-29T16:25:20.081-07:00",
                    "profile": [
                      "http://hl7.org/fhir/us/core/StructureDefinition/us-core-procedure"
                    ]
                  },
                  "status": "completed",
                  "code": {
                    "coding": [
                      {
                        "system": "http://www.ama-assn.org/go/cpt",
                        "code": "44393",
                        "display": "Colonoscopy through stoma; with ablation of tumor(s), polyp(s), or other lesion(s) not amenable to removal by hot biopsy forceps, bipolar cautery or snare technique"
                      }
                    ]
                  },
                  "subject": {
                    "reference": "Patient/numer-EXM130-FHIR4"
                  },
                  "performedPeriod": {
                    "start": "2010-01-01T00:00:00-06:00",
                    "end": "2010-01-01T01:00:00-07:00"
                  }
                }
              }
            ]
          }
        ],
        "status": "complete",
        "type": "individual",
        "measure": "Measure/measure-EXM130-FHIR4-7.2.000",
        "subject": {
          "reference": "Patient/numer-EXM130-FHIR4"
        },
        "period": {
          "start": "2018-12-31T17:00:00-07:00",
          "end": "2019-12-30T17:00:00-07:00"
        },
        "group": [
          {
            "id": "group-1",
            "population": [
              {
                "code": {
                  "coding": [
                    {
                      "system": "http://terminology.hl7.org/CodeSystem/measure-population",
                      "code": "initial-population",
                      "display": "Initial Population"
                    }
                  ]
                },
                "count": 1
              },
              {
                "code": {
                  "coding": [
                    {
                      "system": "http://terminology.hl7.org/CodeSystem/measure-population",
                      "code": "numerator",
                      "display": "Numerator"
                    }
                  ]
                },
                "count": 1
              },
              {
                "code": {
                  "coding": [
                    {
                      "system": "http://terminology.hl7.org/CodeSystem/measure-population",
                      "code": "denominator",
                      "display": "Denominator"
                    }
                  ]
                },
                "count": 1
              },
              {
                "code": {
                  "coding": [
                    {
                      "system": "http://terminology.hl7.org/CodeSystem/measure-population",
                      "code": "denominator-exclusion",
                      "display": "Denominator Exclusion"
                    }
                  ]
                },
                "count": 0
              }
            ],
            "measureScore": {
              "value": 1.0
            }
          }
        ],
        "evaluatedResource": [
          {
            "reference": "#5c81f095-5b76-43ca-aef9-64fc8d966fc9"
          }
        ]
      },
      "request": {
        "method": "PUT",
        "url": "MeasureReport/measurereport-numer-EXM130-FHIR4"
      }
    },
    {
      "resource": {
        "resourceType": "Patient",
        "id": "numer-EXM130-FHIR4",
        "meta": {
          "profile": [
            "http://hl7.org/fhir/us/core/StructureDefinition/us-core-patient"
          ]
        },
        "extension": [
          {
            "url": "http://hl7.org/fhir/us/core/StructureDefinition/us-core-race",
            "extension": [
              {
                "url": "ombCategory",
                "valueCoding": {
                  "system": "urn:oid:2.16.840.1.113883.6.238",
                  "code": "2028-9",
                  "display": "Asian"
                }
              }
            ]
          },
          {
            "url": "http://hl7.org/fhir/us/core/StructureDefinition/us-core-ethnicity",
            "extension": [
              {
                "url": "ombCategory",
                "valueCoding": {
                  "system": "urn:oid:2.16.840.1.113883.6.238",
                  "code": "2135-2",
                  "display": "Hispanic or Latino"
                }
              }
            ]
          }
        ],
        "identifier": [
          {
            "use": "usual",
            "type": {
              "coding": [
                {
                  "system": "http://terminology.hl7.org/CodeSystem/v2-0203",
                  "code": "MR",
                  "display": "Medical Record Number"
                }
              ]
            },
            "system": "http://hospital.smarthealthit.org",
            "value": "999999992"
          }
        ],
        "name": [
          {
            "family": "Blitz",
            "given": [
              "Don"
            ]
          }
        ],
        "gender": "male",
        "birthDate": "1965-01-01"
      },
      "request": {
        "method": "PUT",
        "url": "Patient/numer-EXM130-FHIR4"
      }
    },
    {
      "resource": {
        "resourceType": "Procedure",
        "id": "numer-EXM130-FHIR4-1",
        "meta": {
          "profile": [
            "http://hl7.org/fhir/us/core/StructureDefinition/us-core-procedure"
          ]
        },
        "status": "completed",
        "code": {
          "coding": [
            {
              "system": "http://www.ama-assn.org/go/cpt",
              "code": "44393",
              "display": "Colonoscopy through stoma; with ablation of tumor(s), polyp(s), or other lesion(s) not amenable to removal by hot biopsy forceps, bipolar cautery or snare technique"
            }
          ]
        },
        "subject": {
          "reference": "Patient/numer-EXM130-FHIR4"
        },
        "performedPeriod": {
          "start": "2010-01-01T00:00:00-06:00",
          "end": "2010-01-01T01:00:00-07:00"
        }
      },
      "request": {
        "method": "PUT",
        "url": "Procedure/numer-EXM130-FHIR4-1"
      }
    }
  ]
}