{
  "resourceType": "Bundle",
  "id": "tests-measure-strat1-EXM111-bundle",
  "type": "transaction",
  "entry": [ {
    "resource": {
      "resourceType": "Location",
      "id": "measure-strat1-EXM111-Location",
      "status": "active",
      "name": "Our Lady of Perpetual Guilt",
      "type": [ {
        "coding": [ {
          "system": "http://snomed.info/sct",
          "code": "4525004",
          "display": "Emergency department patient visit (procedure)"
        } ]
      } ]
    },
    "request": {
      "method": "PUT",
      "url": "Location/measure-strat1-EXM111-Location"
    }
  }, {
    "resource": {
      "resourceType": "MeasureReport",
      "id": "measurereport-measure-strat1-EXM111",
      "contained": [ {
        "resourceType": "Observation",
        "id": "2f67760b-2038-4f11-9482-02b8309e0de2",
        "extension": [ {
          "url": "http://hl7.org/fhir/StructureDefinition/cqf-measureInfo",
          "extension": [ {
            "url": "measure",
            "valueCanonical": "http://hl7.org/fhir/us/cqfmeasures/Measure/measure-EXM111-9.1.000"
          }, {
            "url": "populationId",
            "valueString": "MeasureObservation"
          } ]
        } ],
        "status": "final",
        "code": {
          "text": "MeasureObservation"
        },
        "valueQuantity": {
          "value": 20,
          "code": "min"
        }
      }, {
        "resourceType": "Observation",
        "id": "031b6c34-58c8-424f-8f58-fb7bab233220",
        "extension": [ {
          "url": "http://hl7.org/fhir/StructureDefinition/cqf-measureInfo",
          "extension": [ {
            "url": "measure",
            "valueCanonical": "http://hl7.org/fhir/us/cqfmeasures/Measure/measure-EXM111-9.1.000"
          }, {
            "url": "populationId",
            "valueString": "sde-race"
          } ]
        } ],
        "status": "final",
        "code": {
          "text": "sde-race"
        },
        "valueCodeableConcept": {
          "coding": [ {
            "system": "urn:oid:2.16.840.1.113883.6.238",
            "code": "2106-3",
            "display": "White"
          } ]
        }
      }, {
        "resourceType": "Observation",
        "id": "b3c0917b-aec8-4d97-87ba-fc31894c81c9",
        "extension": [ {
          "url": "http://hl7.org/fhir/StructureDefinition/cqf-measureInfo",
          "extension": [ {
            "url": "measure",
            "valueCanonical": "http://hl7.org/fhir/us/cqfmeasures/Measure/measure-EXM111-9.1.000"
          }, {
            "url": "populationId",
            "valueString": "sde-ethnicity"
          } ]
        } ],
        "status": "final",
        "code": {
          "text": "sde-ethnicity"
        },
        "valueCodeableConcept": {
          "coding": [ {
            "system": "urn:oid:2.16.840.1.113883.6.238",
            "code": "2186-5",
            "display": "Not Hispanic or Latino"
          } ]
        }
      }, {
        "resourceType": "Observation",
        "id": "ac8c3249-a00c-4cfa-9bbc-0de7d8a488a6",
        "extension": [ {
          "url": "http://hl7.org/fhir/StructureDefinition/cqf-measureInfo",
          "extension": [ {
            "url": "measure",
            "valueCanonical": "http://hl7.org/fhir/us/cqfmeasures/Measure/measure-EXM111-9.1.000"
          }, {
            "url": "populationId",
            "valueString": "sde-sex"
          } ]
        } ],
        "status": "final",
        "code": {
          "text": "sde-sex"
        },
        "valueCodeableConcept": {
          "coding": [ {
            "code": "F"
          } ]
        }
      } ],
      "status": "complete",
      "type": "individual",
      "measure": "Measure/measure-EXM111-9.1.000",
      "subject": {
        "reference": "Patient/measure-strat1-EXM111"
      },
      "period": {
        "start": "2019-01-01T00:00:00-07:00",
        "end": "2019-12-31T00:00:00-07:00"
      },
      "group": [ {
        "id": "group-1",
        "population": [ {
          "code": {
            "coding": [ {
              "system": "http://terminology.hl7.org/CodeSystem/measure-population",
              "code": "initial-population",
              "display": "Initial Population"
            } ]
          },
          "count": 1
        }, {
          "code": {
            "coding": [ {
              "system": "http://terminology.hl7.org/CodeSystem/measure-population",
              "code": "measure-population",
              "display": "Measure Population"
            } ]
          },
          "count": 1
        }, {
          "code": {
            "coding": [ {
              "system": "http://terminology.hl7.org/CodeSystem/measure-population",
              "code": "measure-population-exclusion",
              "display": "Measure Population Exclusion"
            } ]
          },
          "count": 0
        } ]
      } ],
      "evaluatedResource": [ {
        "reference": "#2f67760b-2038-4f11-9482-02b8309e0de2"
      }, {
        "reference": "#031b6c34-58c8-424f-8f58-fb7bab233220"
      }, {
        "reference": "#b3c0917b-aec8-4d97-87ba-fc31894c81c9"
      }, {
        "reference": "#ac8c3249-a00c-4cfa-9bbc-0de7d8a488a6"
      }, {
        "reference": "Encounter/measure-strat1-EXM111-Enc-Admit"
      }, {
        "reference": "Location/measure-strat1-EXM111-Location"
      }, {
        "reference": "Location/measure-strat2-excl-EXM111-Location"
      }, {
        "reference": "Encounter/measure-strat1-EXM111-Enc-EDVisit"
      }, {
        "reference": "Observation/measure-strat1-EXM111-observation"
      }, {
        "reference": "Location/measure-strat2-EXM111-Location"
      }, {
        "reference": "Location/measure-strat1-excl-EXM111-Location"
      }, {
        "reference": "ServiceRequest/measure-strat1-EXM111-ServiceRequest"
      } ]
    },
    "request": {
      "method": "PUT",
      "url": "MeasureReport/measurereport-measure-strat1-EXM111"
    }
  }, {
    "resource": {
      "resourceType": "Encounter",
      "id": "measure-strat1-EXM111-Enc-Admit",
      "meta": {
        "profile": [ "http://hl7.org/fhir/us/core/StructureDefinition/us-core-encounter" ]
      },
      "status": "finished",
      "class": {
        "system": "http://terminology.hl7.org/CodeSystem/v3-ActCode",
        "code": "IMP",
        "display": "inpatient encounter"
      },
      "type": [ {
        "coding": [ {
          "system": "http://snomed.info/sct",
          "code": "183452005",
          "display": "Emergency Hospital Admission (procedure)"
        } ]
      } ],
      "subject": {
        "reference": "Patient/measure-strat1-EXM111"
      },
      "period": {
        "start": "2019-06-15T10:00:00-00:00",
        "end": "2019-06-17T10:00:00-00:00"
      },
      "location": [ {
        "status": "completed",
        "period": {
          "start": "2019-06-15T05:00:00-00:00",
          "end": "2019-06-15T10:00:00-00:00"
        }
      } ]
    },
    "request": {
      "method": "PUT",
      "url": "Encounter/measure-strat1-EXM111-Enc-Admit"
    }
  }, {
    "resource": {
      "resourceType": "Encounter",
      "id": "measure-strat1-EXM111-Enc-EDVisit",
      "meta": {
        "profile": [ "http://hl7.org/fhir/us/core/StructureDefinition/us-core-encounter" ]
      },
      "status": "finished",
      "type": [ {
        "coding": [ {
          "system": "http://snomed.info/sct",
          "code": "4525004",
          "display": "Emergency department patient visit (procedure)"
        } ]
      } ],
      "subject": {
        "reference": "Patient/measure-strat1-EXM111"
      },
      "period": {
        "start": "2019-06-15T05:00:00-00:00",
        "end": "2019-06-15T09:45:00-00:00"
      },
      "location": [ {
        "location": {
          "reference": "Location/measure-strat1-EXM111-Location"
        },
        "status": "completed",
        "period": {
          "start": "2019-06-15T05:00:00-00:00",
          "end": "2019-06-15T09:30:00-00:00"
        }
      } ]
    },
    "request": {
      "method": "PUT",
      "url": "Encounter/measure-strat1-EXM111-Enc-EDVisit"
    }
  }, {
    "resource": {
      "resourceType": "Patient",
      "id": "measure-strat1-EXM111",
      "meta": {
        "profile": [ "http://hl7.org/fhir/us/core/StructureDefinition/us-core-patient" ]
      },
      "extension": [ {
        "url": "http://hl7.org/fhir/us/core/StructureDefinition/us-core-race",
        "extension": [ {
          "url": "ombCategory",
          "valueCoding": {
            "system": "urn:oid:2.16.840.1.113883.6.238",
            "code": "2106-3",
            "display": "White"
          }
        } ]
      }, {
        "url": "http://hl7.org/fhir/us/core/StructureDefinition/us-core-ethnicity",
        "extension": [ {
          "url": "ombCategory",
          "valueCoding": {
            "system": "urn:oid:2.16.840.1.113883.6.238",
            "code": "2186-5",
            "display": "Not Hispanic or Latino"
          }
        } ]
      } ],
      "identifier": [ {
        "use": "usual",
        "type": {
          "coding": [ {
            "system": "http://terminology.hl7.org/CodeSystem/v2-0203",
            "code": "MR",
            "display": "Medical Record Number"
          } ]
        },
        "system": "http://hospital.smarthealthit.org",
        "value": "9999999911"
      } ],
      "name": [ {
        "family": "Abigail",
        "given": [ "Andersen" ]
      } ],
      "gender": "female",
      "birthDate": "1960-08-28"
    },
    "request": {
      "method": "PUT",
      "url": "Patient/measure-strat1-EXM111"
    }
  }, {
    "resource": {
      "resourceType": "ServiceRequest",
      "id": "measure-strat1-EXM111-ServiceRequest",
      "status": "active",
      "intent": "order",
      "code": {
        "coding": [ {
          "system": "http://snomed.info/sct",
          "code": "10378005",
          "display": "Hospital admisison,  emergency, from emergency room, accidental injury (procedure)"
        } ]
      },
      "subject": {
        "reference": "Patient/measure-strat1-EXM111"
      },
      "encounter": {
        "reference": "Encounter/measure-strat1-EXM111-Enc-EDVisit"
      },
      "authoredOn": "2019-06-15T09:10:00-00:00"
    },
    "request": {
      "method": "PUT",
      "url": "ServiceRequest/measure-strat1-EXM111-ServiceRequest"
    }
  }, {
    "resource": {
      "resourceType": "Observation",
      "id": "measure-strat1-EXM111-observation",
      "meta": {
        "profile": [ "http://hl7.org/fhir/observation" ]
      },
      "status": "final",
      "code": {
        "coding": [ {
          "system": "http://loinc.org",
          "code": "28568-4",
          "display": "Physician Emergency Department Note"
        } ]
      },
      "subject": {
        "reference": "Patient/measure-strat1-EXM111"
      },
      "encounter": {
        "reference": "Encounter/measure-strat1-EXM111-Enc-EDVisit"
      },
      "effectivePeriod": {
        "start": "2019-06-15T07:00:00-00:00",
        "end": "2019-06-15T07:15:00-00:00"
      },
      "valueCodeableConcept": {
        "coding": [ {
          "system": "http://snomed.info/sct",
          "code": "183767005",
          "display": "Listed for admission to hospital (finding)"
        } ]
      }
    },
    "request": {
      "method": "PUT",
      "url": "Observation/measure-strat1-EXM111-observation"
    }
  } ]
}