{
  "resourceType": "Bundle",
  "id": "Vincent-Erickson-Neal-Jr-2682-Encounter-296",
  "type": "transaction",
  "entry": [
    {
      "fullUrl": "http://localhost:8080/cqf-ruler/baseDstu3/Encounter/Encounter-296",
      "resource": {
        "resourceType": "Encounter",
        "id": "Encounter-296",
        "meta": {
          "profile": [
            "http://hl7.org/fhir/us/hedis/StructureDefinition/hedis-encounter"
          ]
        },
        "extension": [
          {
            "url": "http://mihin.org/extension/copyright",
            "valueString": "Copyright 2014-2019 Michigan Health Information Network Shared Services. Licensed under the Apache License, Version 2.0 (the 'License'); you may not use this file except in compliance with the License. You may obtain a copy of the License at  http://www.apache.org/licenses/LICENSE-2.0.  Unless required by applicable law or agreed to in writing, software distributed under the License is distributed on an 'AS IS' BASIS, WITHOUT WARRANTIES OR CONDITIONS OF ANY KIND, either express or implied. See the License for the specific language governing permissions and limitations under the License."
          }
        ],
        "status": "finished",
        "class": {
          "system": "http://hl7.org/fhir/encounter-class",
          "code": "ambulatory",
          "display": "ambulatory"
        },
        "type": [
          {
            "coding": [
              {
                "system": "http://snomed.info/sct",
                "code": "428191000124101",
                "display": "Documentation of current medications"
              }
            ]
          }
        ],
        "subject": {
          "reference": "Patient/Patient-2682",
          "display": "Vincent Erickson Neal Jr"
        },
        "participant": [
          {
            "period": {
              "start": "2016-01-11T00:00:00-05:00",
              "end": "2016-01-15T00:00:00-05:00"
            },
            "individual": {
              "reference": "Practitioner/Practitioner-2232",
              "display": "Laura Pauline Krueger MD"
            }
          }
        ],
        "period": {
          "start": "2016-01-11T00:00:00-05:00",
          "end": "2016-01-15T00:00:00-05:00"
        },
        "location": [
          {
            "location": {
              "reference": "Location/Location-137",
              "display": "EMS Comprehensive Care"
            }
          }
        ],
        "serviceProvider": {
          "reference": "Organization/Organization-1006",
          "display": "EMS Comprehensive Care"
        }
      },
      "request": {
        "method": "PUT",
        "url": "http://localhost:8080/cqf-ruler/baseDstu3/Encounter/Encounter-296"
      }
    },
    {
      "fullUrl": "http://localhost:8080/cqf-ruler/baseDstu3/Task/Task-3347",
      "resource": {
        "resourceType": "Task",
        "id": "Task-3347",
        "extension": [
          {
            "url": "http://mihin.org/extension/copyright",
            "valueString": "Copyright 2014-2019 Michigan Health Information Network Shared Services. Licensed under the Apache License, Version 2.0 (the 'License'); you may not use this file except in compliance with the License. You may obtain a copy of the License at  http://www.apache.org/licenses/LICENSE-2.0.  Unless required by applicable law or agreed to in writing, software distributed under the License is distributed on an 'AS IS' BASIS, WITHOUT WARRANTIES OR CONDITIONS OF ANY KIND, either express or implied. See the License for the specific language governing permissions and limitations under the License."
          }
        ],
        "status": "accepted",
        "intent": "original-order",
        "code": {
          "coding": [
            {
              "system": "SNOMED-CT",
              "code": "430193006",
              "display": "Medication Reconciliation (procedure)"
            }
          ]
        },
        "description": "Care_Plan_Start Task 1",
        "for": {
          "reference": "Patient/Patient-2682",
          "display": "Vincent Erickson Neal Jr"
        },
        "context": {
          "reference": "Encounter/Encounter-296",
          "display": "Ambulatory_Encounter"
        },
        "executionPeriod": {
          "start": "2016-01-11T00:00:00-05:00",
          "end": "2016-01-11T00:00:00-05:00"
        },
        "authoredOn": "2016-01-11T00:00:00-05:00",
        "requester": {
          "agent": {
            "reference": "Practitioner/Practitioner-2232",
            "display": "Laura Pauline Krueger MD"
          },
          "onBehalfOf": {
            "reference": "Organization/Organization-1006",
            "display": "EMS Comprehensive Care"
          }
        }
      },
      "request": {
        "method": "PUT",
        "url": "http://localhost:8080/cqf-ruler/baseDstu3/Task/Task-3347"
      }
    },
    {
      "fullUrl": "http://localhost:8080/cqf-ruler/baseDstu3/CarePlan/CarePlan-3346",
      "resource": {
        "resourceType": "CarePlan",
        "id": "CarePlan-3346",
        "extension": [
          {
            "url": "http://mihin.org/extension/copyright",
            "valueString": "Copyright 2014-2019 Michigan Health Information Network Shared Services. Licensed under the Apache License, Version 2.0 (the 'License'); you may not use this file except in compliance with the License. You may obtain a copy of the License at  http://www.apache.org/licenses/LICENSE-2.0.  Unless required by applicable law or agreed to in writing, software distributed under the License is distributed on an 'AS IS' BASIS, WITHOUT WARRANTIES OR CONDITIONS OF ANY KIND, either express or implied. See the License for the specific language governing permissions and limitations under the License."
          }
        ],
        "identifier": [
          {
            "use": "official",
            "system": "mihin.org/fhir/sid/elementId",
            "value": "7ee5def9-922e-48e9-94af-11cac67e4b3e"
          }
        ],
        "status": "active",
        "category": [
          {
            "coding": [
              {
                "system": "http://snomed.info/sct",
                "code": "430193006",
                "display": "Medication Reconciliation (procedure)"
              }
            ]
          }
        ],
        "subject": {
          "reference": "Patient/Patient-2682",
          "display": "Vincent Erickson Neal Jr"
        },
        "context": {
          "reference": "Encounter/Encounter-296",
          "display": "Ambulatory_Encounter"
        },
        "period": {
          "start": "2016-01-11T00:00:00-05:00",
          "end": "2016-01-11T00:00:00-05:00"
        },
        "author": [
          {
            "reference": "Practitioner/Practitioner-2232",
            "display": "Laura Pauline Krueger MD"
          }
        ],
        "activity": [
          {
            "reference": {
              "reference": "Task/Task-3347",
              "display": "Care_Plan_Start Task 1"
            }
          }
        ]
      },
      "request": {
        "method": "PUT",
        "url": "http://localhost:8080/cqf-ruler/baseDstu3/CarePlan/CarePlan-3346"
      }
    },
    {
      "fullUrl": "http://localhost:8080/cqf-ruler/baseDstu3/Procedure/Procedure-3348",
      "resource": {
        "resourceType": "Procedure",
        "id": "Procedure-3348",
        "meta": {
          "profile": [
            "http://hl7.org/fhir/us/hedis/StructureDefinition/hedis-procedure"
          ]
        },
        "extension": [
          {
            "url": "http://mihin.org/extension/copyright",
            "valueString": "Copyright 2014-2019 Michigan Health Information Network Shared Services. Licensed under the Apache License, Version 2.0 (the 'License'); you may not use this file except in compliance with the License. You may obtain a copy of the License at  http://www.apache.org/licenses/LICENSE-2.0.  Unless required by applicable law or agreed to in writing, software distributed under the License is distributed on an 'AS IS' BASIS, WITHOUT WARRANTIES OR CONDITIONS OF ANY KIND, either express or implied. See the License for the specific language governing permissions and limitations under the License."
          }
        ],
        "identifier": [
          {
            "use": "official",
            "system": "mihin.org/fhir/sid/elementId",
            "value": "2e97f34b-d1f9-4554-9590-40acba944ecd"
          }
        ],
        "status": "completed",
        "code": {
          "coding": [
            {
              "system": "http://snomed.info/sct",
              "code": "430193006",
              "display": "Medication Reconciliation (procedure)"
            }
          ]
        },
        "subject": {
          "reference": "Patient/Patient-2682",
          "display": "Vincent Erickson Neal Jr"
        },
        "context": {
          "reference": "Encounter/Encounter-296",
          "display": "Ambulatory_Encounter"
        },
        "performedPeriod": {
          "start": "2016-01-11T00:00:00-05:00",
          "end": "2016-01-11T00:00:00-05:00"
        },
        "performer": [
          {
            "actor": {
              "reference": "Practitioner/Practitioner-2232",
              "display": "Laura Pauline Krueger MD"
            }
          }
        ],
        "location": {
          "reference": "Location/Location-137",
          "display": "EMS Comprehensive Care"
        }
      },
      "request": {
        "method": "PUT",
        "url": "http://localhost:8080/cqf-ruler/baseDstu3/Procedure/Procedure-3348"
      }
    },
    {
      "fullUrl": "http://localhost:8080/cqf-ruler/baseDstu3/MedicationStatement/MedicationStatement-3349",
      "resource": {
        "resourceType": "MedicationStatement",
        "id": "MedicationStatement-3349",
        "extension": [
          {
            "url": "http://mihin.org/extension/copyright",
            "valueString": "Copyright 2014-2019 Michigan Health Information Network Shared Services. Licensed under the Apache License, Version 2.0 (the 'License'); you may not use this file except in compliance with the License. You may obtain a copy of the License at  http://www.apache.org/licenses/LICENSE-2.0.  Unless required by applicable law or agreed to in writing, software distributed under the License is distributed on an 'AS IS' BASIS, WITHOUT WARRANTIES OR CONDITIONS OF ANY KIND, either express or implied. See the License for the specific language governing permissions and limitations under the License."
          }
        ],
        "context": {
          "reference": "Encounter/Encounter-296",
          "display": "Ambulatory_Encounter"
        },
        "status": "active",
        "category": {
          "coding": [
            {
              "system": "http://terminology.hl7.org/CodeSystem/medication-statement-category"
            }
          ]
        },
        "medicationCodeableConcept": {
          "coding": [
            {
              "system": "http://www.nlm.nih.gov/research/umls/rxnorm",
              "code": "1658637",
              "display": "1 ML heparin sodium, porcine 10000 UNT/ML Injection"
            }
          ]
        },
        "effectivePeriod": {
          "start": "2016-01-15T00:00:00-05:00",
          "end": "2016-01-15T00:00:00-05:00"
        },
        "dateAsserted": "2016-01-15T00:00:00-05:00",
        "informationSource": {
          "reference": "Practitioner/Practitioner-2232",
          "display": "Laura Pauline Krueger MD"
        },
        "subject": {
          "reference": "Patient/Patient-2682",
          "display": "Vincent Erickson Neal Jr"
        },
        "reasonCode": [
          {
            "coding": [
              {
                "system": "http://www.icd10data.com/icd10pcs",
                "code": "0DU77JZ",
                "display": "Supplement Stomach, Pylorus with Synthetic Substitute, Via Natural or Artificial Opening"
              }
            ]
          }
        ]
      },
      "request": {
        "method": "PUT",
        "url": "http://localhost:8080/cqf-ruler/baseDstu3/MedicationStatement/MedicationStatement-3349"
      }
    }
  ]
}