{
  "resourceType": "Bundle",
  "id": "Carla-Phillips-Reyes-496-Encounter-506",
  "type": "transaction",
  "entry": [
    {
      "fullUrl": "http://localhost:8080/cqf-ruler/baseDstu3/Encounter/Encounter-506",
      "resource": {
        "resourceType": "Encounter",
        "id": "Encounter-506",
        "meta": {
          "profile": [
            "http://hl7.org/fhir/us/hedis/StructureDefinition/hedis-encounter"
          ]
        },
        "extension": [
          {
            "url": "http://mihin.org/extension/copyright",
            "valueString": "Copyright 2014-2018 Michigan Health Information Network Shared Services. Licensed under the Apache License, Version 2.0 (the 'License'); you may not use this file except in compliance with the License. You may obtain a copy of the License at  http://www.apache.org/licenses/LICENSE-2.0.  Unless required by applicable law or agreed to in writing, software distributed under the License is distributed on an 'AS IS' BASIS, WITHOUT WARRANTIES OR CONDITIONS OF ANY KIND, either express or implied. See the License for the specific language governing permissions and limitations under the License."
          }
        ],
        "status": "finished",
        "class": {
          "system": "http://hl7.org/fhir/encounter-class",
          "code": "ambulatory",
          "display": "ambulatory"
        },
        "type": [
          {
            "coding": [
              {
                "system": "http://snomed.info/sct",
                "code": "185345009",
                "display": "Encounter for symptom"
              }
            ]
          }
        ],
        "subject": {
          "reference": "Patient/Patient-496",
          "display": "Carla Phillips Reyes"
        },
        "participant": [
          {
            "period": {
              "start": "2017-01-19T00:09:00-05:00",
              "end": "2017-01-19T00:42:00-05:00"
            },
            "individual": {
              "reference": "Practitioner/Practitioner-1",
              "display": "Hilda Ellen Davidson MD"
            }
          }
        ],
        "period": {
          "start": "2017-01-19T00:09:00-05:00",
          "end": "2017-01-19T00:42:00-05:00"
        },
        "location": [
          {
            "location": {
              "reference": "Location/Location-111",
              "display": "Windward General Hospital"
            }
          }
        ],
        "serviceProvider": {
          "reference": "Organization/Organization-1004",
          "display": "Windward General Hospital"
        }
      },
      "request": {
        "method": "PUT",
        "url": "http://localhost:8080/cqf-ruler/baseDstu3/Encounter/Encounter-506"
      }
    },
    {
      "fullUrl": "http://localhost:8080/cqf-ruler/baseDstu3/Procedure/Procedure-35516",
      "resource": {
        "resourceType": "Procedure",
        "id": "Procedure-35516",
        "meta": {
          "profile": [
            "http://hl7.org/fhir/us/hedis/StructureDefinition/hedis-procedure"
          ]
        },
        "extension": [
          {
            "url": "http://mihin.org/extension/copyright",
            "valueString": "Copyright 2014-2018 Michigan Health Information Network Shared Services. Licensed under the Apache License, Version 2.0 (the 'License'); you may not use this file except in compliance with the License. You may obtain a copy of the License at  http://www.apache.org/licenses/LICENSE-2.0.  Unless required by applicable law or agreed to in writing, software distributed under the License is distributed on an 'AS IS' BASIS, WITHOUT WARRANTIES OR CONDITIONS OF ANY KIND, either express or implied. See the License for the specific language governing permissions and limitations under the License."
          }
        ],
        "identifier": [
          {
            "use": "official",
            "system": "mihin.org/fhir/sid/elementId",
            "value": "d47aa55e-1049-4d4b-85a1-614a2c32df5a"
          }
        ],
        "status": "completed",
        "code": {
          "coding": [
            {
              "system": "http://www.ama-assn.org/go/cpt",
              "code": "44387"
            }
          ]
        },
        "subject": {
          "reference": "Patient/Patient-496",
          "display": "Carla Phillips Reyes"
        },
        "context": {
          "reference": "Encounter/Encounter-506",
          "display": "Colonoscopy_Encounter"
        },
        "performedPeriod": {
          "start": "2017-01-19T00:09:00-05:00",
          "end": "2017-01-19T00:42:00-05:00"
        },
        "performer": [
          {
            "actor": {
              "reference": "Practitioner/Practitioner-1",
              "display": "Hilda Ellen Davidson MD"
            }
          }
        ],
        "location": {
          "reference": "Location/Location-111",
          "display": "Windward General Hospital"
        }
      },
      "request": {
        "method": "PUT",
        "url": "http://localhost:8080/cqf-ruler/baseDstu3/Procedure/Procedure-35516"
      }
    },
    {
      "fullUrl": "http://localhost:8080/cqf-ruler/baseDstu3/Observation/Observation-35517",
      "resource": {
        "resourceType": "Observation",
        "id": "Observation-35517",
        "meta": {
          "profile": [
            "http://hl7.org/fhir/us/hedis/StructureDefinition/hedis-observation"
          ]
        },
        "extension": [
          {
            "url": "http://mihin.org/extension/copyright",
            "valueString": "Copyright 2014-2018 Michigan Health Information Network Shared Services. Licensed under the Apache License, Version 2.0 (the 'License'); you may not use this file except in compliance with the License. You may obtain a copy of the License at  http://www.apache.org/licenses/LICENSE-2.0.  Unless required by applicable law or agreed to in writing, software distributed under the License is distributed on an 'AS IS' BASIS, WITHOUT WARRANTIES OR CONDITIONS OF ANY KIND, either express or implied. See the License for the specific language governing permissions and limitations under the License."
          }
        ],
        "identifier": [
          {
            "use": "official",
            "system": "mihin.org/fhir/sid/elementId",
            "value": "e302bb13-6bfc-47b2-b5cb-c6d97ffed3bf"
          }
        ],
        "status": "final",
        "category": [
          {
            "coding": [
              {
                "system": "http://hl7.org/fhir/observation-category",
                "code": "exam",
                "display": "Exam"
              }
            ]
          }
        ],
        "code": {
          "coding": [
            {
              "system": "http://snomed.info/sct",
              "code": "851000119109",
              "display": "History of colonoscopy (situation)"
            }
          ]
        },
        "subject": {
          "reference": "Patient/Patient-496",
          "display": "Carla Phillips Reyes"
        },
        "context": {
          "reference": "Encounter/Encounter-506",
          "display": "Colonoscopy_Encounter"
        },
        "effectiveDateTime": "2017-01-19T00:42:00-05:00",
        "performer": [
          {
            "reference": "Practitioner/Practitioner-1",
            "display": "Hilda Ellen Davidson MD"
          }
        ],
        "valueString": "NEGATIVE"
      },
      "request": {
        "method": "PUT",
        "url": "http://localhost:8080/cqf-ruler/baseDstu3/Observation/Observation-35517"
      }
    },
    {
      "fullUrl": "http://localhost:8080/cqf-ruler/baseDstu3/DiagnosticReport/DiagnosticReport-35518",
      "resource": {
        "resourceType": "DiagnosticReport",
        "id": "DiagnosticReport-35518",
        "meta": {
          "profile": [
            "http://hl7.org/fhir/us/hedis/StructureDefinition/hedis-diagnosticreport"
          ]
        },
        "extension": [
          {
            "url": "http://mihin.org/extension/copyright",
            "valueString": "Copyright 2014-2018 Michigan Health Information Network Shared Services. Licensed under the Apache License, Version 2.0 (the 'License'); you may not use this file except in compliance with the License. You may obtain a copy of the License at  http://www.apache.org/licenses/LICENSE-2.0.  Unless required by applicable law or agreed to in writing, software distributed under the License is distributed on an 'AS IS' BASIS, WITHOUT WARRANTIES OR CONDITIONS OF ANY KIND, either express or implied. See the License for the specific language governing permissions and limitations under the License."
          }
        ],
        "identifier": [
          {
            "use": "official",
            "system": "mihin.org/fhir/sid/elementId",
            "value": "c568a006-5dfd-400a-bef1-153a3a69efee"
          }
        ],
        "status": "final",
        "code": {
          "coding": [
            {
              "system": "http://www.ama-assn.org/go/cpt",
              "code": "45381"
            }
          ]
        },
        "subject": {
          "reference": "Patient/Patient-496",
          "display": "Carla Phillips Reyes"
        },
        "context": {
          "reference": "Encounter/Encounter-506",
          "display": "Colonoscopy_Encounter"
        },
        "effectivePeriod": {
          "start": "2017-01-19T00:42:00-05:00",
          "end": "2017-01-19T00:42:00-05:00"
        },
        "issued": "2017-01-19T00:42:00.000-05:00",
        "result": [
          {
            "reference": "Observation/Observation-35517",
            "display": "Negative_Colonoscopy_Diagnostic_Report_Observation_1"
          }
        ]
      },
      "request": {
        "method": "PUT",
        "url": "http://localhost:8080/cqf-ruler/baseDstu3/DiagnosticReport/DiagnosticReport-35518"
      }
    }
  ]
}