{
  "resourceType": "Bundle",
  "id": "Linda-Myrtle-Morgan-2638-Encounter-298",
  "type": "transaction",
  "entry": [
    {
      "fullUrl": "http://localhost:8080/cqf-ruler/baseDstu3/Encounter/Encounter-298",
      "resource": {
        "resourceType": "Encounter",
        "id": "Encounter-298",
        "meta": {
          "profile": [
            "http://hl7.org/fhir/us/hedis/StructureDefinition/hedis-encounter"
          ]
        },
        "extension": [
          {
            "url": "http://mihin.org/extension/copyright",
            "valueString": "Copyright 2014-2019 Michigan Health Information Network Shared Services. Licensed under the Apache License, Version 2.0 (the 'License'); you may not use this file except in compliance with the License. You may obtain a copy of the License at  http://www.apache.org/licenses/LICENSE-2.0.  Unless required by applicable law or agreed to in writing, software distributed under the License is distributed on an 'AS IS' BASIS, WITHOUT WARRANTIES OR CONDITIONS OF ANY KIND, either express or implied. See the License for the specific language governing permissions and limitations under the License."
          }
        ],
        "status": "finished",
        "class": {
          "system": "http://hl7.org/fhir/encounter-class",
          "code": "ambulatory",
          "display": "ambulatory"
        },
        "type": [
          {
            "coding": [
              {
                "system": "http://snomed.info/sct",
                "code": "428191000124101",
                "display": "Documentation of current medications"
              }
            ]
          }
        ],
        "subject": {
          "reference": "Patient/Patient-2638",
          "display": "Linda Myrtle Morgan"
        },
        "participant": [
          {
            "period": {
              "start": "2016-01-14T00:00:00-05:00",
              "end": "2016-01-15T00:00:00-05:00"
            },
            "individual": {
              "reference": "Practitioner/Practitioner-2236",
              "display": "Harold Arthur Wilson MD"
            }
          }
        ],
        "period": {
          "start": "2016-01-14T00:00:00-05:00",
          "end": "2016-01-15T00:00:00-05:00"
        },
        "location": [
          {
            "location": {
              "reference": "Location/Location-137",
              "display": "EMS Comprehensive Care"
            }
          }
        ],
        "serviceProvider": {
          "reference": "Organization/Organization-1006",
          "display": "EMS Comprehensive Care"
        }
      },
      "request": {
        "method": "PUT",
        "url": "http://localhost:8080/cqf-ruler/baseDstu3/Encounter/Encounter-298"
      }
    },
    {
      "fullUrl": "http://localhost:8080/cqf-ruler/baseDstu3/Task/Task-3434",
      "resource": {
        "resourceType": "Task",
        "id": "Task-3434",
        "extension": [
          {
            "url": "http://mihin.org/extension/copyright",
            "valueString": "Copyright 2014-2019 Michigan Health Information Network Shared Services. Licensed under the Apache License, Version 2.0 (the 'License'); you may not use this file except in compliance with the License. You may obtain a copy of the License at  http://www.apache.org/licenses/LICENSE-2.0.  Unless required by applicable law or agreed to in writing, software distributed under the License is distributed on an 'AS IS' BASIS, WITHOUT WARRANTIES OR CONDITIONS OF ANY KIND, either express or implied. See the License for the specific language governing permissions and limitations under the License."
          }
        ],
        "status": "accepted",
        "intent": "original-order",
        "code": {
          "coding": [
            {
              "system": "SNOMED-CT",
              "code": "430193006",
              "display": "Medication Reconciliation (procedure)"
            }
          ]
        },
        "description": "Care_Plan_Start Task 1",
        "for": {
          "reference": "Patient/Patient-2638",
          "display": "Linda Myrtle Morgan"
        },
        "context": {
          "reference": "Encounter/Encounter-298",
          "display": "Ambulatory_Encounter"
        },
        "executionPeriod": {
          "start": "2016-01-14T00:00:00-05:00",
          "end": "2016-01-14T00:00:00-05:00"
        },
        "authoredOn": "2016-01-14T00:00:00-05:00",
        "requester": {
          "agent": {
            "reference": "Practitioner/Practitioner-2236",
            "display": "Harold Arthur Wilson MD"
          },
          "onBehalfOf": {
            "reference": "Organization/Organization-1006",
            "display": "EMS Comprehensive Care"
          }
        }
      },
      "request": {
        "method": "PUT",
        "url": "http://localhost:8080/cqf-ruler/baseDstu3/Task/Task-3434"
      }
    },
    {
      "fullUrl": "http://localhost:8080/cqf-ruler/baseDstu3/CarePlan/CarePlan-3433",
      "resource": {
        "resourceType": "CarePlan",
        "id": "CarePlan-3433",
        "extension": [
          {
            "url": "http://mihin.org/extension/copyright",
            "valueString": "Copyright 2014-2019 Michigan Health Information Network Shared Services. Licensed under the Apache License, Version 2.0 (the 'License'); you may not use this file except in compliance with the License. You may obtain a copy of the License at  http://www.apache.org/licenses/LICENSE-2.0.  Unless required by applicable law or agreed to in writing, software distributed under the License is distributed on an 'AS IS' BASIS, WITHOUT WARRANTIES OR CONDITIONS OF ANY KIND, either express or implied. See the License for the specific language governing permissions and limitations under the License."
          }
        ],
        "identifier": [
          {
            "use": "official",
            "system": "mihin.org/fhir/sid/elementId",
            "value": "a5b57e72-e181-42b6-b0ca-996fe3c8106d"
          }
        ],
        "status": "active",
        "category": [
          {
            "coding": [
              {
                "system": "http://snomed.info/sct",
                "code": "430193006",
                "display": "Medication Reconciliation (procedure)"
              }
            ]
          }
        ],
        "subject": {
          "reference": "Patient/Patient-2638",
          "display": "Linda Myrtle Morgan"
        },
        "context": {
          "reference": "Encounter/Encounter-298",
          "display": "Ambulatory_Encounter"
        },
        "period": {
          "start": "2016-01-14T00:00:00-05:00",
          "end": "2016-01-14T00:00:00-05:00"
        },
        "author": [
          {
            "reference": "Practitioner/Practitioner-2236",
            "display": "Harold Arthur Wilson MD"
          }
        ],
        "activity": [
          {
            "reference": {
              "reference": "Task/Task-3434",
              "display": "Care_Plan_Start Task 1"
            }
          }
        ]
      },
      "request": {
        "method": "PUT",
        "url": "http://localhost:8080/cqf-ruler/baseDstu3/CarePlan/CarePlan-3433"
      }
    },
    {
      "fullUrl": "http://localhost:8080/cqf-ruler/baseDstu3/Procedure/Procedure-3435",
      "resource": {
        "resourceType": "Procedure",
        "id": "Procedure-3435",
        "meta": {
          "profile": [
            "http://hl7.org/fhir/us/hedis/StructureDefinition/hedis-procedure"
          ]
        },
        "extension": [
          {
            "url": "http://mihin.org/extension/copyright",
            "valueString": "Copyright 2014-2019 Michigan Health Information Network Shared Services. Licensed under the Apache License, Version 2.0 (the 'License'); you may not use this file except in compliance with the License. You may obtain a copy of the License at  http://www.apache.org/licenses/LICENSE-2.0.  Unless required by applicable law or agreed to in writing, software distributed under the License is distributed on an 'AS IS' BASIS, WITHOUT WARRANTIES OR CONDITIONS OF ANY KIND, either express or implied. See the License for the specific language governing permissions and limitations under the License."
          }
        ],
        "identifier": [
          {
            "use": "official",
            "system": "mihin.org/fhir/sid/elementId",
            "value": "b19bccb4-dddd-46ed-808c-227e228deae0"
          }
        ],
        "status": "completed",
        "code": {
          "coding": [
            {
              "system": "http://snomed.info/sct",
              "code": "430193006",
              "display": "Medication Reconciliation (procedure)"
            }
          ]
        },
        "subject": {
          "reference": "Patient/Patient-2638",
          "display": "Linda Myrtle Morgan"
        },
        "context": {
          "reference": "Encounter/Encounter-298",
          "display": "Ambulatory_Encounter"
        },
        "performedPeriod": {
          "start": "2016-01-14T00:00:00-05:00",
          "end": "2016-01-14T00:00:00-05:00"
        },
        "performer": [
          {
            "actor": {
              "reference": "Practitioner/Practitioner-2236",
              "display": "Harold Arthur Wilson MD"
            }
          }
        ],
        "location": {
          "reference": "Location/Location-137",
          "display": "EMS Comprehensive Care"
        }
      },
      "request": {
        "method": "PUT",
        "url": "http://localhost:8080/cqf-ruler/baseDstu3/Procedure/Procedure-3435"
      }
    },
    {
      "fullUrl": "http://localhost:8080/cqf-ruler/baseDstu3/MedicationStatement/MedicationStatement-3436",
      "resource": {
        "resourceType": "MedicationStatement",
        "id": "MedicationStatement-3436",
        "extension": [
          {
            "url": "http://mihin.org/extension/copyright",
            "valueString": "Copyright 2014-2019 Michigan Health Information Network Shared Services. Licensed under the Apache License, Version 2.0 (the 'License'); you may not use this file except in compliance with the License. You may obtain a copy of the License at  http://www.apache.org/licenses/LICENSE-2.0.  Unless required by applicable law or agreed to in writing, software distributed under the License is distributed on an 'AS IS' BASIS, WITHOUT WARRANTIES OR CONDITIONS OF ANY KIND, either express or implied. See the License for the specific language governing permissions and limitations under the License."
          }
        ],
        "context": {
          "reference": "Encounter/Encounter-298",
          "display": "Ambulatory_Encounter"
        },
        "status": "active",
        "category": {
          "coding": [
            {
              "system": "http://terminology.hl7.org/CodeSystem/medication-statement-category"
            }
          ]
        },
        "medicationCodeableConcept": {
          "coding": [
            {
              "system": "http://www.nlm.nih.gov/research/umls/rxnorm",
              "code": "861356",
              "display": "0.8 ML Fondaparinux sodium 12.5 MG/ML Prefilled Syringe"
            }
          ]
        },
        "effectivePeriod": {
          "start": "2016-01-15T00:00:00-05:00",
          "end": "2016-01-15T00:00:00-05:00"
        },
        "dateAsserted": "2016-01-15T00:00:00-05:00",
        "informationSource": {
          "reference": "Practitioner/Practitioner-2236",
          "display": "Harold Arthur Wilson MD"
        },
        "subject": {
          "reference": "Patient/Patient-2638",
          "display": "Linda Myrtle Morgan"
        },
        "reasonCode": [
          {
            "coding": [
              {
                "system": "http://www.icd10data.com/icd10pcs",
                "code": "0DBL8ZZ",
                "display": "Excision of Transverse Colon, Via Natural or Artificial Opening Endoscopic"
              }
            ]
          }
        ]
      },
      "request": {
        "method": "PUT",
        "url": "http://localhost:8080/cqf-ruler/baseDstu3/MedicationStatement/MedicationStatement-3436"
      }
    }
  ]
}