{
  "resourceType": "Bundle",
  "id": "Joyce-Riggs-Byrd-414-Encounter-5710",
  "type": "transaction",
  "entry": [
    {
      "fullUrl": "http://localhost:8080/cqf-ruler/baseDstu3/Encounter/Encounter-5710",
      "resource": {
        "resourceType": "Encounter",
        "id": "Encounter-5710",
        "meta": {
          "profile": [
            "http://hl7.org/fhir/us/hedis/StructureDefinition/hedis-encounter"
          ]
        },
        "extension": [
          {
            "url": "http://mihin.org/extension/copyright",
            "valueString": "Copyright 2014-2018 Michigan Health Information Network Shared Services. Licensed under the Apache License, Version 2.0 (the 'License'); you may not use this file except in compliance with the License. You may obtain a copy of the License at  http://www.apache.org/licenses/LICENSE-2.0.  Unless required by applicable law or agreed to in writing, software distributed under the License is distributed on an 'AS IS' BASIS, WITHOUT WARRANTIES OR CONDITIONS OF ANY KIND, either express or implied. See the License for the specific language governing permissions and limitations under the License."
          }
        ],
        "status": "finished",
        "class": {
          "system": "http://hl7.org/fhir/encounter-class",
          "code": "ambulatory",
          "display": "ambulatory"
        },
        "type": [
          {
            "coding": [
              {
                "system": "http://www.ama-assn.org/go/cpt",
                "code": "99212",
                "display": "Combined Office Visits"
              }
            ]
          }
        ],
        "subject": {
          "reference": "Patient/Patient-414",
          "display": "Joyce Riggs Byrd"
        },
        "participant": [
          {
            "period": {
              "start": "2020-03-31T01:00:00-04:00",
              "end": "2020-03-31T01:00:00-04:00"
            },
            "individual": {
              "reference": "Practitioner/Practitioner-84",
              "display": "Leroy Darryl Richmond MD"
            }
          }
        ],
        "period": {
          "start": "2020-03-31T01:00:00-04:00",
          "end": "2020-03-31T01:00:00-04:00"
        },
        "location": [
          {
            "location": {
              "reference": "Location/Location-225",
              "display": "Taylor Methodist Hospital"
            }
          }
        ],
        "serviceProvider": {
          "reference": "Organization/Organization-1024",
          "display": "Taylor Methodist Hospital"
        }
      },
      "request": {
        "method": "PUT",
        "url": "http://localhost:8080/cqf-ruler/baseDstu3/Encounter/Encounter-5710"
      }
    },
    {
      "fullUrl": "http://localhost:8080/cqf-ruler/baseDstu3/Procedure/Procedure-158549",
      "resource": {
        "resourceType": "Procedure",
        "id": "Procedure-158549",
        "meta": {
          "profile": [
            "http://hl7.org/fhir/us/hedis/StructureDefinition/hedis-procedure"
          ]
        },
        "extension": [
          {
            "url": "http://mihin.org/extension/copyright",
            "valueString": "Copyright 2014-2018 Michigan Health Information Network Shared Services. Licensed under the Apache License, Version 2.0 (the 'License'); you may not use this file except in compliance with the License. You may obtain a copy of the License at  http://www.apache.org/licenses/LICENSE-2.0.  Unless required by applicable law or agreed to in writing, software distributed under the License is distributed on an 'AS IS' BASIS, WITHOUT WARRANTIES OR CONDITIONS OF ANY KIND, either express or implied. See the License for the specific language governing permissions and limitations under the License."
          }
        ],
        "identifier": [
          {
            "use": "official",
            "system": "mihin.org/fhir/sid/elementId",
            "value": "1a1b2f00-b05d-46ae-9082-5c994978045f"
          }
        ],
        "status": "completed",
        "code": {
          "coding": [
            {
              "system": "http://www.ama-assn.org/go/cpt",
              "code": "77067"
            }
          ]
        },
        "subject": {
          "reference": "Patient/Patient-414",
          "display": "Joyce Riggs Byrd"
        },
        "context": {
          "reference": "Encounter/Encounter-5710",
          "display": "Ambulatory_Encounter"
        },
        "performedPeriod": {
          "start": "2020-03-31T01:00:00-04:00",
          "end": "2020-03-31T01:00:00-04:00"
        },
        "performer": [
          {
            "actor": {
              "reference": "Practitioner/Practitioner-84",
              "display": "Leroy Darryl Richmond MD"
            }
          }
        ],
        "location": {
          "reference": "Location/Location-225",
          "display": "Taylor Methodist Hospital"
        }
      },
      "request": {
        "method": "PUT",
        "url": "http://localhost:8080/cqf-ruler/baseDstu3/Procedure/Procedure-158549"
      }
    },
    {
      "fullUrl": "http://localhost:8080/cqf-ruler/baseDstu3/Condition/Condition-158551",
      "resource": {
        "resourceType": "Condition",
        "id": "Condition-158551",
        "meta": {
          "profile": [
            "http://hl7.org/fhir/us/hedis/StructureDefinition/hedis-condition"
          ]
        },
        "extension": [
          {
            "url": "http://mihin.org/extension/copyright",
            "valueString": "Copyright 2014-2018 Michigan Health Information Network Shared Services. Licensed under the Apache License, Version 2.0 (the 'License'); you may not use this file except in compliance with the License. You may obtain a copy of the License at  http://www.apache.org/licenses/LICENSE-2.0.  Unless required by applicable law or agreed to in writing, software distributed under the License is distributed on an 'AS IS' BASIS, WITHOUT WARRANTIES OR CONDITIONS OF ANY KIND, either express or implied. See the License for the specific language governing permissions and limitations under the License."
          }
        ],
        "identifier": [
          {
            "use": "official",
            "system": "mihin.org/fhir/sid/elementId",
            "value": "4f7516e6-a1b7-43b6-8535-bf9d94009db4"
          }
        ],
        "clinicalStatus": "active",
        "verificationStatus": "confirmed",
        "code": {
          "coding": [
            {
              "system": "http://snomed.info/sct",
              "code": "397145000",
              "display": "Mammography assessment (Category 5) - Highly suggestive of malignancy"
            }
          ]
        },
        "subject": {
          "reference": "Patient/Patient-414",
          "display": "Joyce Riggs Byrd"
        },
        "context": {
          "reference": "Encounter/Encounter-5710",
          "display": "Ambulatory_Encounter"
        },
        "onsetDateTime": "2020-03-31T01:00:00-04:00",
        "assertedDate": "2020-03-31T01:00:00-04:00",
        "asserter": {
          "reference": "Practitioner/Practitioner-84",
          "display": "Leroy Darryl Richmond MD"
        }
      },
      "request": {
        "method": "PUT",
        "url": "http://localhost:8080/cqf-ruler/baseDstu3/Condition/Condition-158551"
      }
    },
    {
      "fullUrl": "http://localhost:8080/cqf-ruler/baseDstu3/Observation/Observation-158552",
      "resource": {
        "resourceType": "Observation",
        "id": "Observation-158552",
        "meta": {
          "profile": [
            "http://hl7.org/fhir/us/hedis/StructureDefinition/hedis-observation"
          ]
        },
        "extension": [
          {
            "url": "http://mihin.org/extension/copyright",
            "valueString": "Copyright 2014-2018 Michigan Health Information Network Shared Services. Licensed under the Apache License, Version 2.0 (the 'License'); you may not use this file except in compliance with the License. You may obtain a copy of the License at  http://www.apache.org/licenses/LICENSE-2.0.  Unless required by applicable law or agreed to in writing, software distributed under the License is distributed on an 'AS IS' BASIS, WITHOUT WARRANTIES OR CONDITIONS OF ANY KIND, either express or implied. See the License for the specific language governing permissions and limitations under the License."
          }
        ],
        "identifier": [
          {
            "use": "official",
            "system": "mihin.org/fhir/sid/elementId",
            "value": "e5dae748-089e-4fef-a101-48f6b4e96d0b"
          }
        ],
        "status": "final",
        "category": [
          {
            "coding": [
              {
                "system": "http://hl7.org/fhir/observation-category",
                "code": "exam",
                "display": "Exam"
              }
            ]
          }
        ],
        "code": {
          "coding": [
            {
              "system": "http://snomed.info/sct",
              "code": "397145000",
              "display": "Mammography assessment (Category 5) - Highly suggestive of malignancy"
            }
          ]
        },
        "subject": {
          "reference": "Patient/Patient-414",
          "display": "Joyce Riggs Byrd"
        },
        "context": {
          "reference": "Encounter/Encounter-5710",
          "display": "Ambulatory_Encounter"
        },
        "effectiveDateTime": "2020-03-31T01:00:00-04:00",
        "performer": [
          {
            "reference": "Practitioner/Practitioner-84",
            "display": "Leroy Darryl Richmond MD"
          }
        ],
        "valueString": "POSITIVE"
      },
      "request": {
        "method": "PUT",
        "url": "http://localhost:8080/cqf-ruler/baseDstu3/Observation/Observation-158552"
      }
    },
    {
      "fullUrl": "http://localhost:8080/cqf-ruler/baseDstu3/DiagnosticReport/DiagnosticReport-158553",
      "resource": {
        "resourceType": "DiagnosticReport",
        "id": "DiagnosticReport-158553",
        "meta": {
          "profile": [
            "http://hl7.org/fhir/us/hedis/StructureDefinition/hedis-diagnosticreport"
          ]
        },
        "extension": [
          {
            "url": "http://mihin.org/extension/copyright",
            "valueString": "Copyright 2014-2018 Michigan Health Information Network Shared Services. Licensed under the Apache License, Version 2.0 (the 'License'); you may not use this file except in compliance with the License. You may obtain a copy of the License at  http://www.apache.org/licenses/LICENSE-2.0.  Unless required by applicable law or agreed to in writing, software distributed under the License is distributed on an 'AS IS' BASIS, WITHOUT WARRANTIES OR CONDITIONS OF ANY KIND, either express or implied. See the License for the specific language governing permissions and limitations under the License."
          }
        ],
        "identifier": [
          {
            "use": "official",
            "system": "mihin.org/fhir/sid/elementId",
            "value": "d22d936c-1cd0-4e0b-8c67-66cf974607d3"
          }
        ],
        "status": "final",
        "code": {
          "coding": [
            {
              "system": "http://loinc.org",
              "code": "26289-9",
              "display": "Breast - left Mammogram limited"
            }
          ]
        },
        "subject": {
          "reference": "Patient/Patient-414",
          "display": "Joyce Riggs Byrd"
        },
        "context": {
          "reference": "Encounter/Encounter-5710",
          "display": "Ambulatory_Encounter"
        },
        "effectivePeriod": {
          "start": "2020-03-31T01:00:00-04:00",
          "end": "2020-03-31T01:00:00-04:00"
        },
        "issued": "2020-03-31T01:00:00.000-04:00",
        "result": [
          {
            "reference": "Observation/Observation-158552",
            "display": "Breast_Cancer_Report_Observation_1"
          }
        ]
      },
      "request": {
        "method": "PUT",
        "url": "http://localhost:8080/cqf-ruler/baseDstu3/DiagnosticReport/DiagnosticReport-158553"
      }
    }
  ]
}