{
  "resourceType": "Bundle",
  "id": "Juanita-Barry-Roy-460-Encounter-848",
  "type": "transaction",
  "entry": [
    {
      "fullUrl": "http://localhost:8080/cqf-ruler/baseDstu3/Encounter/Encounter-848",
      "resource": {
        "resourceType": "Encounter",
        "id": "Encounter-848",
        "meta": {
          "profile": [
            "http://hl7.org/fhir/us/hedis/StructureDefinition/hedis-encounter"
          ]
        },
        "extension": [
          {
            "url": "http://mihin.org/extension/copyright",
            "valueString": "Copyright 2014-2018 Michigan Health Information Network Shared Services. Licensed under the Apache License, Version 2.0 (the 'License'); you may not use this file except in compliance with the License. You may obtain a copy of the License at  http://www.apache.org/licenses/LICENSE-2.0.  Unless required by applicable law or agreed to in writing, software distributed under the License is distributed on an 'AS IS' BASIS, WITHOUT WARRANTIES OR CONDITIONS OF ANY KIND, either express or implied. See the License for the specific language governing permissions and limitations under the License."
          }
        ],
        "status": "finished",
        "class": {
          "system": "http://hl7.org/fhir/encounter-class",
          "code": "ambulatory",
          "display": "ambulatory"
        },
        "type": [
          {
            "coding": [
              {
                "system": "http://snomed.info/sct",
                "code": "185345009",
                "display": "Encounter for symptom"
              }
            ]
          }
        ],
        "subject": {
          "reference": "Patient/Patient-460",
          "display": "Juanita Barry Roy"
        },
        "participant": [
          {
            "period": {
              "start": "2017-03-25T00:09:00-04:00",
              "end": "2017-03-25T01:36:00-04:00"
            },
            "individual": {
              "reference": "Practitioner/Practitioner-76",
              "display": "Patrick Serrano Daugherty MD"
            }
          }
        ],
        "period": {
          "start": "2017-03-25T00:09:00-04:00",
          "end": "2017-03-25T01:36:00-04:00"
        },
        "location": [
          {
            "location": {
              "reference": "Location/Location-212",
              "display": "Westland Memorial Hospital"
            }
          }
        ],
        "serviceProvider": {
          "reference": "Organization/Organization-1023",
          "display": "Westland Memorial Hospital"
        }
      },
      "request": {
        "method": "PUT",
        "url": "http://localhost:8080/cqf-ruler/baseDstu3/Encounter/Encounter-848"
      }
    },
    {
      "fullUrl": "http://localhost:8080/cqf-ruler/baseDstu3/Procedure/Procedure-44642",
      "resource": {
        "resourceType": "Procedure",
        "id": "Procedure-44642",
        "meta": {
          "profile": [
            "http://hl7.org/fhir/us/hedis/StructureDefinition/hedis-procedure"
          ]
        },
        "extension": [
          {
            "url": "http://mihin.org/extension/copyright",
            "valueString": "Copyright 2014-2018 Michigan Health Information Network Shared Services. Licensed under the Apache License, Version 2.0 (the 'License'); you may not use this file except in compliance with the License. You may obtain a copy of the License at  http://www.apache.org/licenses/LICENSE-2.0.  Unless required by applicable law or agreed to in writing, software distributed under the License is distributed on an 'AS IS' BASIS, WITHOUT WARRANTIES OR CONDITIONS OF ANY KIND, either express or implied. See the License for the specific language governing permissions and limitations under the License."
          }
        ],
        "identifier": [
          {
            "use": "official",
            "system": "mihin.org/fhir/sid/elementId",
            "value": "2565bb1f-9600-40b5-84f5-19fb3d4df425"
          }
        ],
        "status": "completed",
        "code": {
          "coding": [
            {
              "system": "http://www.ama-assn.org/go/cpt",
              "code": "44394"
            }
          ]
        },
        "subject": {
          "reference": "Patient/Patient-460",
          "display": "Juanita Barry Roy"
        },
        "context": {
          "reference": "Encounter/Encounter-848",
          "display": "Colonoscopy_Encounter"
        },
        "performedPeriod": {
          "start": "2017-03-25T00:09:00-04:00",
          "end": "2017-03-25T01:36:00-04:00"
        },
        "performer": [
          {
            "actor": {
              "reference": "Practitioner/Practitioner-76",
              "display": "Patrick Serrano Daugherty MD"
            }
          }
        ],
        "location": {
          "reference": "Location/Location-212",
          "display": "Westland Memorial Hospital"
        }
      },
      "request": {
        "method": "PUT",
        "url": "http://localhost:8080/cqf-ruler/baseDstu3/Procedure/Procedure-44642"
      }
    },
    {
      "fullUrl": "http://localhost:8080/cqf-ruler/baseDstu3/Observation/Observation-44643",
      "resource": {
        "resourceType": "Observation",
        "id": "Observation-44643",
        "meta": {
          "profile": [
            "http://hl7.org/fhir/us/hedis/StructureDefinition/hedis-observation"
          ]
        },
        "extension": [
          {
            "url": "http://mihin.org/extension/copyright",
            "valueString": "Copyright 2014-2018 Michigan Health Information Network Shared Services. Licensed under the Apache License, Version 2.0 (the 'License'); you may not use this file except in compliance with the License. You may obtain a copy of the License at  http://www.apache.org/licenses/LICENSE-2.0.  Unless required by applicable law or agreed to in writing, software distributed under the License is distributed on an 'AS IS' BASIS, WITHOUT WARRANTIES OR CONDITIONS OF ANY KIND, either express or implied. See the License for the specific language governing permissions and limitations under the License."
          }
        ],
        "identifier": [
          {
            "use": "official",
            "system": "mihin.org/fhir/sid/elementId",
            "value": "8e56bafc-aa9b-43f0-86e8-13673c9a6124"
          }
        ],
        "status": "final",
        "category": [
          {
            "coding": [
              {
                "system": "http://hl7.org/fhir/observation-category",
                "code": "exam",
                "display": "Exam"
              }
            ]
          }
        ],
        "code": {
          "coding": [
            {
              "system": "http://www.ama-assn.org/go/cpt",
              "code": "45389",
              "display": "Colonoscopy, flexible; with endoscopic stent placement (includes pre- and post-dilation and guide wire passage, when performed)"
            }
          ]
        },
        "subject": {
          "reference": "Patient/Patient-460",
          "display": "Juanita Barry Roy"
        },
        "context": {
          "reference": "Encounter/Encounter-848",
          "display": "Colonoscopy_Encounter"
        },
        "effectiveDateTime": "2017-03-25T01:36:00-04:00",
        "performer": [
          {
            "reference": "Practitioner/Practitioner-76",
            "display": "Patrick Serrano Daugherty MD"
          }
        ],
        "valueString": "NEGATIVE"
      },
      "request": {
        "method": "PUT",
        "url": "http://localhost:8080/cqf-ruler/baseDstu3/Observation/Observation-44643"
      }
    },
    {
      "fullUrl": "http://localhost:8080/cqf-ruler/baseDstu3/DiagnosticReport/DiagnosticReport-44644",
      "resource": {
        "resourceType": "DiagnosticReport",
        "id": "DiagnosticReport-44644",
        "meta": {
          "profile": [
            "http://hl7.org/fhir/us/hedis/StructureDefinition/hedis-diagnosticreport"
          ]
        },
        "extension": [
          {
            "url": "http://mihin.org/extension/copyright",
            "valueString": "Copyright 2014-2018 Michigan Health Information Network Shared Services. Licensed under the Apache License, Version 2.0 (the 'License'); you may not use this file except in compliance with the License. You may obtain a copy of the License at  http://www.apache.org/licenses/LICENSE-2.0.  Unless required by applicable law or agreed to in writing, software distributed under the License is distributed on an 'AS IS' BASIS, WITHOUT WARRANTIES OR CONDITIONS OF ANY KIND, either express or implied. See the License for the specific language governing permissions and limitations under the License."
          }
        ],
        "identifier": [
          {
            "use": "official",
            "system": "mihin.org/fhir/sid/elementId",
            "value": "6e951b8f-28f2-486b-9ea7-d7cc732b019d"
          }
        ],
        "status": "final",
        "code": {
          "coding": [
            {
              "system": "http://www.ama-assn.org/go/cpt",
              "code": "44408"
            }
          ]
        },
        "subject": {
          "reference": "Patient/Patient-460",
          "display": "Juanita Barry Roy"
        },
        "context": {
          "reference": "Encounter/Encounter-848",
          "display": "Colonoscopy_Encounter"
        },
        "effectivePeriod": {
          "start": "2017-03-25T01:36:00-04:00",
          "end": "2017-03-25T01:36:00-04:00"
        },
        "issued": "2017-03-25T01:36:00.000-04:00",
        "result": [
          {
            "reference": "Observation/Observation-44643",
            "display": "Negative_Colonoscopy_Diagnostic_Report_Observation_1"
          }
        ]
      },
      "request": {
        "method": "PUT",
        "url": "http://localhost:8080/cqf-ruler/baseDstu3/DiagnosticReport/DiagnosticReport-44644"
      }
    }
  ]
}