{
  "resourceType": "Bundle",
  "id": "Juanita-Barry-Roy-460-Encounter-2665",
  "type": "transaction",
  "entry": [
    {
      "fullUrl": "http://localhost:8080/cqf-ruler/baseDstu3/Encounter/Encounter-2665",
      "resource": {
        "resourceType": "Encounter",
        "id": "Encounter-2665",
        "meta": {
          "profile": [
            "http://hl7.org/fhir/us/hedis/StructureDefinition/hedis-encounter"
          ]
        },
        "extension": [
          {
            "url": "http://mihin.org/extension/copyright",
            "valueString": "Copyright 2014-2018 Michigan Health Information Network Shared Services. Licensed under the Apache License, Version 2.0 (the 'License'); you may not use this file except in compliance with the License. You may obtain a copy of the License at  http://www.apache.org/licenses/LICENSE-2.0.  Unless required by applicable law or agreed to in writing, software distributed under the License is distributed on an 'AS IS' BASIS, WITHOUT WARRANTIES OR CONDITIONS OF ANY KIND, either express or implied. See the License for the specific language governing permissions and limitations under the License."
          }
        ],
        "status": "finished",
        "class": {
          "system": "http://hl7.org/fhir/encounter-class",
          "code": "ambulatory",
          "display": "ambulatory"
        },
        "type": [
          {
            "coding": [
              {
                "system": "http://snomed.info/sct",
                "code": "428191000124101",
                "display": "Documentation of current medications"
              }
            ]
          }
        ],
        "subject": {
          "reference": "Patient/Patient-460",
          "display": "Juanita Barry Roy"
        },
        "participant": [
          {
            "period": {
              "start": "2018-04-25T00:00:00-04:00",
              "end": "2018-04-25T00:00:00-04:00"
            },
            "individual": {
              "reference": "Practitioner/Practitioner-78",
              "display": "Alex Lowery McGee MD"
            }
          }
        ],
        "period": {
          "start": "2018-04-25T00:00:00-04:00",
          "end": "2018-04-25T00:00:00-04:00"
        },
        "location": [
          {
            "location": {
              "reference": "Location/Location-212",
              "display": "Westland Memorial Hospital"
            }
          }
        ],
        "serviceProvider": {
          "reference": "Organization/Organization-1023",
          "display": "Westland Memorial Hospital"
        }
      },
      "request": {
        "method": "PUT",
        "url": "http://localhost:8080/cqf-ruler/baseDstu3/Encounter/Encounter-2665"
      }
    },
    {
      "fullUrl": "http://localhost:8080/cqf-ruler/baseDstu3/Task/Task-86015",
      "resource": {
        "resourceType": "Task",
        "id": "Task-86015",
        "extension": [
          {
            "url": "http://mihin.org/extension/copyright",
            "valueString": "Copyright 2014-2018 Michigan Health Information Network Shared Services. Licensed under the Apache License, Version 2.0 (the 'License'); you may not use this file except in compliance with the License. You may obtain a copy of the License at  http://www.apache.org/licenses/LICENSE-2.0.  Unless required by applicable law or agreed to in writing, software distributed under the License is distributed on an 'AS IS' BASIS, WITHOUT WARRANTIES OR CONDITIONS OF ANY KIND, either express or implied. See the License for the specific language governing permissions and limitations under the License."
          }
        ],
        "status": "accepted",
        "intent": "original-order",
        "code": {
          "coding": [
            {
              "system": "SNOMED-CT",
              "code": "430193006",
              "display": "Medication Reconciliation (procedure)"
            }
          ]
        },
        "description": "Care_Plan_Start Task 1",
        "for": {
          "reference": "Patient/Patient-460",
          "display": "Juanita Barry Roy"
        },
        "context": {
          "reference": "Encounter/Encounter-2665",
          "display": "Ambulatory_Encounter"
        },
        "executionPeriod": {
          "start": "2018-04-25T00:00:00-04:00",
          "end": "2018-04-25T00:00:00-04:00"
        },
        "authoredOn": "2018-04-25T00:00:00-04:00",
        "requester": {
          "agent": {
            "reference": "Practitioner/Practitioner-78",
            "display": "Alex Lowery McGee MD"
          },
          "onBehalfOf": {
            "reference": "Organization/Organization-1023",
            "display": "Westland Memorial Hospital"
          }
        }
      },
      "request": {
        "method": "PUT",
        "url": "http://localhost:8080/cqf-ruler/baseDstu3/Task/Task-86015"
      }
    },
    {
      "fullUrl": "http://localhost:8080/cqf-ruler/baseDstu3/CarePlan/CarePlan-86014",
      "resource": {
        "resourceType": "CarePlan",
        "id": "CarePlan-86014",
        "extension": [
          {
            "url": "http://mihin.org/extension/copyright",
            "valueString": "Copyright 2014-2018 Michigan Health Information Network Shared Services. Licensed under the Apache License, Version 2.0 (the 'License'); you may not use this file except in compliance with the License. You may obtain a copy of the License at  http://www.apache.org/licenses/LICENSE-2.0.  Unless required by applicable law or agreed to in writing, software distributed under the License is distributed on an 'AS IS' BASIS, WITHOUT WARRANTIES OR CONDITIONS OF ANY KIND, either express or implied. See the License for the specific language governing permissions and limitations under the License."
          }
        ],
        "identifier": [
          {
            "use": "official",
            "system": "mihin.org/fhir/sid/elementId",
            "value": "315b0756-8784-4e0e-9de6-8f3d4d616194"
          }
        ],
        "status": "active",
        "category": [
          {
            "coding": [
              {
                "system": "http://snomed.info/sct",
                "code": "430193006",
                "display": "Medication Reconciliation (procedure)"
              }
            ]
          }
        ],
        "subject": {
          "reference": "Patient/Patient-460",
          "display": "Juanita Barry Roy"
        },
        "context": {
          "reference": "Encounter/Encounter-2665",
          "display": "Ambulatory_Encounter"
        },
        "period": {
          "start": "2018-04-25T00:00:00-04:00",
          "end": "2018-04-25T00:00:00-04:00"
        },
        "author": [
          {
            "reference": "Practitioner/Practitioner-78",
            "display": "Alex Lowery McGee MD"
          }
        ],
        "activity": [
          {
            "reference": {
              "reference": "Task/Task-86015",
              "display": "Care_Plan_Start Task 1"
            }
          }
        ]
      },
      "request": {
        "method": "PUT",
        "url": "http://localhost:8080/cqf-ruler/baseDstu3/CarePlan/CarePlan-86014"
      }
    },
    {
      "fullUrl": "http://localhost:8080/cqf-ruler/baseDstu3/Procedure/Procedure-86016",
      "resource": {
        "resourceType": "Procedure",
        "id": "Procedure-86016",
        "meta": {
          "profile": [
            "http://hl7.org/fhir/us/hedis/StructureDefinition/hedis-procedure"
          ]
        },
        "extension": [
          {
            "url": "http://mihin.org/extension/copyright",
            "valueString": "Copyright 2014-2018 Michigan Health Information Network Shared Services. Licensed under the Apache License, Version 2.0 (the 'License'); you may not use this file except in compliance with the License. You may obtain a copy of the License at  http://www.apache.org/licenses/LICENSE-2.0.  Unless required by applicable law or agreed to in writing, software distributed under the License is distributed on an 'AS IS' BASIS, WITHOUT WARRANTIES OR CONDITIONS OF ANY KIND, either express or implied. See the License for the specific language governing permissions and limitations under the License."
          }
        ],
        "identifier": [
          {
            "use": "official",
            "system": "mihin.org/fhir/sid/elementId",
            "value": "7cb3dd06-9c0f-499e-96a7-e2168f129ba9"
          }
        ],
        "status": "completed",
        "code": {
          "coding": [
            {
              "system": "http://snomed.info/sct",
              "code": "430193006",
              "display": "Medication Reconciliation (procedure)"
            }
          ]
        },
        "subject": {
          "reference": "Patient/Patient-460",
          "display": "Juanita Barry Roy"
        },
        "context": {
          "reference": "Encounter/Encounter-2665",
          "display": "Ambulatory_Encounter"
        },
        "performedPeriod": {
          "start": "2018-04-25T00:00:00-04:00",
          "end": "2018-04-25T00:00:00-04:00"
        },
        "performer": [
          {
            "actor": {
              "reference": "Practitioner/Practitioner-78",
              "display": "Alex Lowery McGee MD"
            }
          }
        ],
        "location": {
          "reference": "Location/Location-212",
          "display": "Westland Memorial Hospital"
        }
      },
      "request": {
        "method": "PUT",
        "url": "http://localhost:8080/cqf-ruler/baseDstu3/Procedure/Procedure-86016"
      }
    }
  ]
}