{
  "resourceType": "Bundle",
  "id": "Oscar-Vincent-Holder-Jr-2633-Encounter-310",
  "type": "transaction",
  "entry": [
    {
      "fullUrl": "http://localhost:8080/cqf-ruler/baseDstu3/Encounter/Encounter-310",
      "resource": {
        "resourceType": "Encounter",
        "id": "Encounter-310",
        "meta": {
          "profile": [
            "http://hl7.org/fhir/us/hedis/StructureDefinition/hedis-encounter"
          ]
        },
        "extension": [
          {
            "url": "http://mihin.org/extension/copyright",
            "valueString": "Copyright 2014-2019 Michigan Health Information Network Shared Services. Licensed under the Apache License, Version 2.0 (the 'License'); you may not use this file except in compliance with the License. You may obtain a copy of the License at  http://www.apache.org/licenses/LICENSE-2.0.  Unless required by applicable law or agreed to in writing, software distributed under the License is distributed on an 'AS IS' BASIS, WITHOUT WARRANTIES OR CONDITIONS OF ANY KIND, either express or implied. See the License for the specific language governing permissions and limitations under the License."
          }
        ],
        "status": "finished",
        "class": {
          "system": "http://hl7.org/fhir/encounter-class",
          "code": "ambulatory",
          "display": "ambulatory"
        },
        "type": [
          {
            "coding": [
              {
                "system": "http://snomed.info/sct",
                "code": "428191000124101",
                "display": "Documentation of current medications"
              }
            ]
          }
        ],
        "subject": {
          "reference": "Patient/Patient-2633",
          "display": "Oscar Vincent Holder Jr"
        },
        "participant": [
          {
            "period": {
              "start": "2016-01-25T00:00:00-05:00",
              "end": "2016-01-25T00:00:00-05:00"
            },
            "individual": {
              "reference": "Practitioner/Practitioner-2248",
              "display": "Mae Alicia Jacobson MD"
            }
          }
        ],
        "period": {
          "start": "2016-01-25T00:00:00-05:00",
          "end": "2016-01-25T00:00:00-05:00"
        },
        "location": [
          {
            "location": {
              "reference": "Location/Location-155",
              "display": "Community Family Hospital"
            }
          }
        ],
        "serviceProvider": {
          "reference": "Organization/Organization-1013",
          "display": "Community Family Hospital"
        }
      },
      "request": {
        "method": "PUT",
        "url": "http://localhost:8080/cqf-ruler/baseDstu3/Encounter/Encounter-310"
      }
    },
    {
      "fullUrl": "http://localhost:8080/cqf-ruler/baseDstu3/Task/Task-3798",
      "resource": {
        "resourceType": "Task",
        "id": "Task-3798",
        "extension": [
          {
            "url": "http://mihin.org/extension/copyright",
            "valueString": "Copyright 2014-2019 Michigan Health Information Network Shared Services. Licensed under the Apache License, Version 2.0 (the 'License'); you may not use this file except in compliance with the License. You may obtain a copy of the License at  http://www.apache.org/licenses/LICENSE-2.0.  Unless required by applicable law or agreed to in writing, software distributed under the License is distributed on an 'AS IS' BASIS, WITHOUT WARRANTIES OR CONDITIONS OF ANY KIND, either express or implied. See the License for the specific language governing permissions and limitations under the License."
          }
        ],
        "status": "accepted",
        "intent": "original-order",
        "code": {
          "coding": [
            {
              "system": "SNOMED-CT",
              "code": "430193006",
              "display": "Medication Reconciliation (procedure)"
            }
          ]
        },
        "description": "Care_Plan_Start Task 1",
        "for": {
          "reference": "Patient/Patient-2633",
          "display": "Oscar Vincent Holder Jr"
        },
        "context": {
          "reference": "Encounter/Encounter-310",
          "display": "Ambulatory_Encounter"
        },
        "executionPeriod": {
          "start": "2016-01-25T00:00:00-05:00",
          "end": "2016-01-25T00:00:00-05:00"
        },
        "authoredOn": "2016-01-25T00:00:00-05:00",
        "requester": {
          "agent": {
            "reference": "Practitioner/Practitioner-2248",
            "display": "Mae Alicia Jacobson MD"
          },
          "onBehalfOf": {
            "reference": "Organization/Organization-1013",
            "display": "Community Family Hospital"
          }
        }
      },
      "request": {
        "method": "PUT",
        "url": "http://localhost:8080/cqf-ruler/baseDstu3/Task/Task-3798"
      }
    },
    {
      "fullUrl": "http://localhost:8080/cqf-ruler/baseDstu3/CarePlan/CarePlan-3797",
      "resource": {
        "resourceType": "CarePlan",
        "id": "CarePlan-3797",
        "extension": [
          {
            "url": "http://mihin.org/extension/copyright",
            "valueString": "Copyright 2014-2019 Michigan Health Information Network Shared Services. Licensed under the Apache License, Version 2.0 (the 'License'); you may not use this file except in compliance with the License. You may obtain a copy of the License at  http://www.apache.org/licenses/LICENSE-2.0.  Unless required by applicable law or agreed to in writing, software distributed under the License is distributed on an 'AS IS' BASIS, WITHOUT WARRANTIES OR CONDITIONS OF ANY KIND, either express or implied. See the License for the specific language governing permissions and limitations under the License."
          }
        ],
        "identifier": [
          {
            "use": "official",
            "system": "mihin.org/fhir/sid/elementId",
            "value": "d50dcf4d-0372-404b-a28f-b2288196bfd4"
          }
        ],
        "status": "active",
        "category": [
          {
            "coding": [
              {
                "system": "http://snomed.info/sct",
                "code": "430193006",
                "display": "Medication Reconciliation (procedure)"
              }
            ]
          }
        ],
        "subject": {
          "reference": "Patient/Patient-2633",
          "display": "Oscar Vincent Holder Jr"
        },
        "context": {
          "reference": "Encounter/Encounter-310",
          "display": "Ambulatory_Encounter"
        },
        "period": {
          "start": "2016-01-25T00:00:00-05:00",
          "end": "2016-01-25T00:00:00-05:00"
        },
        "author": [
          {
            "reference": "Practitioner/Practitioner-2248",
            "display": "Mae Alicia Jacobson MD"
          }
        ],
        "activity": [
          {
            "reference": {
              "reference": "Task/Task-3798",
              "display": "Care_Plan_Start Task 1"
            }
          }
        ]
      },
      "request": {
        "method": "PUT",
        "url": "http://localhost:8080/cqf-ruler/baseDstu3/CarePlan/CarePlan-3797"
      }
    },
    {
      "fullUrl": "http://localhost:8080/cqf-ruler/baseDstu3/Procedure/Procedure-3799",
      "resource": {
        "resourceType": "Procedure",
        "id": "Procedure-3799",
        "meta": {
          "profile": [
            "http://hl7.org/fhir/us/hedis/StructureDefinition/hedis-procedure"
          ]
        },
        "extension": [
          {
            "url": "http://mihin.org/extension/copyright",
            "valueString": "Copyright 2014-2019 Michigan Health Information Network Shared Services. Licensed under the Apache License, Version 2.0 (the 'License'); you may not use this file except in compliance with the License. You may obtain a copy of the License at  http://www.apache.org/licenses/LICENSE-2.0.  Unless required by applicable law or agreed to in writing, software distributed under the License is distributed on an 'AS IS' BASIS, WITHOUT WARRANTIES OR CONDITIONS OF ANY KIND, either express or implied. See the License for the specific language governing permissions and limitations under the License."
          }
        ],
        "identifier": [
          {
            "use": "official",
            "system": "mihin.org/fhir/sid/elementId",
            "value": "a9057bc9-21f8-4e16-af25-06b2fd5e8014"
          }
        ],
        "status": "completed",
        "code": {
          "coding": [
            {
              "system": "http://snomed.info/sct",
              "code": "430193006",
              "display": "Medication Reconciliation (procedure)"
            }
          ]
        },
        "subject": {
          "reference": "Patient/Patient-2633",
          "display": "Oscar Vincent Holder Jr"
        },
        "context": {
          "reference": "Encounter/Encounter-310",
          "display": "Ambulatory_Encounter"
        },
        "performedPeriod": {
          "start": "2016-01-25T00:00:00-05:00",
          "end": "2016-01-25T00:00:00-05:00"
        },
        "performer": [
          {
            "actor": {
              "reference": "Practitioner/Practitioner-2248",
              "display": "Mae Alicia Jacobson MD"
            }
          }
        ],
        "location": {
          "reference": "Location/Location-155",
          "display": "Community Family Hospital"
        }
      },
      "request": {
        "method": "PUT",
        "url": "http://localhost:8080/cqf-ruler/baseDstu3/Procedure/Procedure-3799"
      }
    }
  ]
}