{
  "resourceType": "Bundle",
  "id": "tests-numer-EXM125-bundle",
  "type": "transaction",
  "entry": [ {
    "resource": {
      "resourceType": "MeasureReport",
      "id": "measurereport-numer-EXM125",
      "contained": [ {
        "resourceType": "Bundle",
        "id": "6105e8c0-8527-40a4-8e67-2e07f05f2f25",
        "type": "collection",
        "entry": [ {
          "fullUrl": "Encounter/numer-EXM125-1",
          "resource": {
            "resourceType": "Encounter",
            "id": "numer-EXM125-1",
            "meta": {
              "profile": [ "http://hl7.org/fhir/us/core/StructureDefinition/us-core-encounter" ]
            },
            "status": "finished",
            "class": {
              "system": "http://terminology.hl7.org/CodeSystem/v3-ActCode",
              "code": "AMB",
              "display": "ambulatory"
            },
            "type": [ {
              "coding": [ {
                "system": "http://www.ama-assn.org/go/cpt",
                "code": "99201",
                "display": "Office or other outpatient visit for the evaluation and management of a new patient, which requires these 3 key components: A problem focused history; A problem focused examination; Straightforward medical decision making. Counseling and/or coordination of care with other physicians, other qualified health care professionals, or agencies are provided consistent with the nature of the problem(s) and the patient's and/or family's needs. Usually, the presenting problem(s) are self limited or minor. Typically, 10 minutes are spent face-to-face with the patient and/or family."
              } ]
            } ],
            "subject": {
              "reference": "Patient/numer-EXM125"
            },
            "period": {
              "start": "2019-05-31T00:00:00-00:00",
              "end": "2019-05-31T00:00:00-00:00"
            }
          }
        }, {
          "fullUrl": "9a883f09-9212-4055-83c4-2343668699c5",
          "resource": {
            "resourceType": "List",
            "id": "9a883f09-9212-4055-83c4-2343668699c5",
            "title": "denominator",
            "entry": [ {
              "item": {
                "reference": "numer-EXM125-1"
              }
            }, {
              "item": {
                "reference": "numer-EXM125"
              }
            } ]
          }
        }, {
          "fullUrl": "8ef2d2ec-b60b-4b8a-a1dd-d7763b87684c",
          "resource": {
            "resourceType": "List",
            "id": "8ef2d2ec-b60b-4b8a-a1dd-d7763b87684c",
            "title": "numerator",
            "entry": [ {
              "item": {
                "reference": "numer-EXM125-3"
              }
            } ]
          }
        }, {
          "fullUrl": "Patient/numer-EXM125",
          "resource": {
            "resourceType": "Patient",
            "id": "numer-EXM125",
            "meta": {
              "profile": [ "http://hl7.org/fhir/us/core/StructureDefinition/us-core-patient" ]
            },
            "extension": [ {
              "url": "http://hl7.org/fhir/us/core/StructureDefinition/us-core-race",
              "extension": [ {
                "url": "ombCategory",
                "valueCoding": {
                  "system": "urn:oid:2.16.840.1.113883.6.238",
                  "code": "2028-9",
                  "display": "Asian"
                }
              } ]
            }, {
              "url": "http://hl7.org/fhir/us/core/StructureDefinition/us-core-ethnicity",
              "extension": [ {
                "url": "ombCategory",
                "valueCoding": {
                  "system": "urn:oid:2.16.840.1.113883.6.238",
                  "code": "2135-2",
                  "display": "Hispanic or Latino"
                }
              } ]
            } ],
            "identifier": [ {
              "use": "usual",
              "type": {
                "coding": [ {
                  "system": "http://terminology.hl7.org/CodeSystem/v2-0203",
                  "code": "MR",
                  "display": "Medical Record Number"
                } ]
              },
              "system": "http://hospital.smarthealthit.org",
              "value": "999999995"
            } ],
            "name": [ {
              "family": "McCarren",
              "given": [ "Karen" ]
            } ],
            "gender": "female",
            "birthDate": "1965-01-01"
          }
        }, {
          "fullUrl": "DiagnosticReport/numer-EXM125-3",
          "resource": {
            "resourceType": "DiagnosticReport",
            "id": "numer-EXM125-3",
            "meta": {
              "profile": [ "http://hl7.org/fhir/us/core/StructureDefinition/us-core-diagnosticreport-note" ]
            },
            "status": "final",
            "code": {
              "coding": [ {
                "system": "http://loinc.org",
                "code": "24604-1",
                "display": "MG Breast Diagnostic Limited Views"
              } ]
            },
            "subject": {
              "reference": "Patient/numer-EXM125"
            },
            "effectivePeriod": {
              "start": "2018-05-30T00:00:00-00:00",
              "end": "2018-11-30T00:00:00-00:00"
            }
          }
        }, {
          "fullUrl": "08fd841d-7baa-4d47-b7cd-6637d72ab97e",
          "resource": {
            "resourceType": "List",
            "id": "08fd841d-7baa-4d47-b7cd-6637d72ab97e",
            "title": "initial-population",
            "entry": [ {
              "item": {
                "reference": "numer-EXM125-1"
              }
            }, {
              "item": {
                "reference": "numer-EXM125"
              }
            } ]
          }
        } ]
      } ],
      "status": "complete",
      "type": "individual",
      "measure": "Measure/measure-EXM125-7.3.000",
      "subject": {
        "reference": "Patient/numer-EXM125"
      },
      "period": {
        "start": "2018-12-31T17:00:00-07:00",
        "end": "2019-12-30T17:00:00-07:00"
      },
      "group": [ {
        "id": "group-1",
        "population": [ {
          "code": {
            "coding": [ {
              "system": "http://terminology.hl7.org/CodeSystem/measure-population",
              "code": "initial-population",
              "display": "Initial Population"
            } ]
          },
          "count": 1
        }, {
          "code": {
            "coding": [ {
              "system": "http://terminology.hl7.org/CodeSystem/measure-population",
              "code": "numerator",
              "display": "Numerator"
            } ]
          },
          "count": 1
        }, {
          "code": {
            "coding": [ {
              "system": "http://terminology.hl7.org/CodeSystem/measure-population",
              "code": "denominator",
              "display": "Denominator"
            } ]
          },
          "count": 1
        }, {
          "code": {
            "coding": [ {
              "system": "http://terminology.hl7.org/CodeSystem/measure-population",
              "code": "denominator-exclusion",
              "display": "Denominator Exclusion"
            } ]
          },
          "count": 0
        } ],
        "measureScore": {
          "value": 1.0
        }
      } ],
      "evaluatedResource": [ {
        "reference": "#6105e8c0-8527-40a4-8e67-2e07f05f2f25"
      } ]
    },
    "request": {
      "method": "PUT",
      "url": "MeasureReport/measurereport-numer-EXM125"
    }
  }, {
    "resource": {
      "resourceType": "Encounter",
      "id": "numer-EXM125-1",
      "meta": {
        "profile": [ "http://hl7.org/fhir/us/core/StructureDefinition/us-core-encounter" ]
      },
      "status": "finished",
      "class": {
        "system": "http://terminology.hl7.org/CodeSystem/v3-ActCode",
        "code": "AMB",
        "display": "ambulatory"
      },
      "type": [ {
        "coding": [ {
          "system": "http://www.ama-assn.org/go/cpt",
          "code": "99201",
          "display": "Office or other outpatient visit for the evaluation and management of a new patient, which requires these 3 key components: A problem focused history; A problem focused examination; Straightforward medical decision making. Counseling and/or coordination of care with other physicians, other qualified health care professionals, or agencies are provided consistent with the nature of the problem(s) and the patient's and/or family's needs. Usually, the presenting problem(s) are self limited or minor. Typically, 10 minutes are spent face-to-face with the patient and/or family."
        } ]
      } ],
      "subject": {
        "reference": "Patient/numer-EXM125"
      },
      "period": {
        "start": "2019-05-31T00:00:00-00:00",
        "end": "2019-05-31T00:00:00-00:00"
      }
    },
    "request": {
      "method": "PUT",
      "url": "Encounter/numer-EXM125-1"
    }
  }, {
    "resource": {
      "resourceType": "Patient",
      "id": "numer-EXM125",
      "meta": {
        "profile": [ "http://hl7.org/fhir/us/core/StructureDefinition/us-core-patient" ]
      },
      "extension": [ {
        "url": "http://hl7.org/fhir/us/core/StructureDefinition/us-core-race",
        "extension": [ {
          "url": "ombCategory",
          "valueCoding": {
            "system": "urn:oid:2.16.840.1.113883.6.238",
            "code": "2028-9",
            "display": "Asian"
          }
        } ]
      }, {
        "url": "http://hl7.org/fhir/us/core/StructureDefinition/us-core-ethnicity",
        "extension": [ {
          "url": "ombCategory",
          "valueCoding": {
            "system": "urn:oid:2.16.840.1.113883.6.238",
            "code": "2135-2",
            "display": "Hispanic or Latino"
          }
        } ]
      } ],
      "identifier": [ {
        "use": "usual",
        "type": {
          "coding": [ {
            "system": "http://terminology.hl7.org/CodeSystem/v2-0203",
            "code": "MR",
            "display": "Medical Record Number"
          } ]
        },
        "system": "http://hospital.smarthealthit.org",
        "value": "999999995"
      } ],
      "name": [ {
        "family": "McCarren",
        "given": [ "Karen" ]
      } ],
      "gender": "female",
      "birthDate": "1965-01-01"
    },
    "request": {
      "method": "PUT",
      "url": "Patient/numer-EXM125"
    }
  }, {
    "resource": {
      "resourceType": "DiagnosticReport",
      "id": "numer-EXM125-3",
      "meta": {
        "profile": [ "http://hl7.org/fhir/us/core/StructureDefinition/us-core-diagnosticreport-note" ]
      },
      "status": "final",
      "code": {
        "coding": [ {
          "system": "http://loinc.org",
          "code": "24604-1",
          "display": "MG Breast Diagnostic Limited Views"
        } ]
      },
      "subject": {
        "reference": "Patient/numer-EXM125"
      },
      "effectivePeriod": {
        "start": "2018-05-30T00:00:00-00:00",
        "end": "2018-11-30T00:00:00-00:00"
      }
    },
    "request": {
      "method": "PUT",
      "url": "DiagnosticReport/numer-EXM125-3"
    }
  } ]
}