{
  "resourceType": "Bundle",
  "id": "Bessie-Lucas-Kirk-441-Encounter-5951",
  "type": "transaction",
  "entry": [
    {
      "fullUrl": "http://localhost:8080/cqf-ruler/baseDstu3/Encounter/Encounter-5951",
      "resource": {
        "resourceType": "Encounter",
        "id": "Encounter-5951",
        "meta": {
          "profile": [
            "http://hl7.org/fhir/us/hedis/StructureDefinition/hedis-encounter"
          ]
        },
        "extension": [
          {
            "url": "http://mihin.org/extension/copyright",
            "valueString": "Copyright 2014-2018 Michigan Health Information Network Shared Services. Licensed under the Apache License, Version 2.0 (the 'License'); you may not use this file except in compliance with the License. You may obtain a copy of the License at  http://www.apache.org/licenses/LICENSE-2.0.  Unless required by applicable law or agreed to in writing, software distributed under the License is distributed on an 'AS IS' BASIS, WITHOUT WARRANTIES OR CONDITIONS OF ANY KIND, either express or implied. See the License for the specific language governing permissions and limitations under the License."
          }
        ],
        "status": "finished",
        "class": {
          "system": "http://hl7.org/fhir/encounter-class",
          "code": "ambulatory",
          "display": "ambulatory"
        },
        "type": [
          {
            "coding": [
              {
                "system": "http://snomed.info/sct",
                "code": "428191000124101",
                "display": "Documentation of current medications"
              }
            ]
          }
        ],
        "subject": {
          "reference": "Patient/Patient-441",
          "display": "Bessie Lucas Kirk"
        },
        "participant": [
          {
            "period": {
              "start": "2020-04-25T00:00:00-04:00",
              "end": "2020-04-25T00:00:00-04:00"
            },
            "individual": {
              "reference": "Practitioner/Practitioner-54",
              "display": "Anita Preston Garner MD"
            }
          }
        ],
        "period": {
          "start": "2020-04-25T00:00:00-04:00",
          "end": "2020-04-25T00:00:00-04:00"
        },
        "location": [
          {
            "location": {
              "reference": "Location/Location-181",
              "display": "Mother Charity Hospital"
            }
          }
        ],
        "serviceProvider": {
          "reference": "Organization/Organization-1015",
          "display": "Mother Charity Hospital"
        }
      },
      "request": {
        "method": "PUT",
        "url": "http://localhost:8080/cqf-ruler/baseDstu3/Encounter/Encounter-5951"
      }
    },
    {
      "fullUrl": "http://localhost:8080/cqf-ruler/baseDstu3/Task/Task-162315",
      "resource": {
        "resourceType": "Task",
        "id": "Task-162315",
        "extension": [
          {
            "url": "http://mihin.org/extension/copyright",
            "valueString": "Copyright 2014-2018 Michigan Health Information Network Shared Services. Licensed under the Apache License, Version 2.0 (the 'License'); you may not use this file except in compliance with the License. You may obtain a copy of the License at  http://www.apache.org/licenses/LICENSE-2.0.  Unless required by applicable law or agreed to in writing, software distributed under the License is distributed on an 'AS IS' BASIS, WITHOUT WARRANTIES OR CONDITIONS OF ANY KIND, either express or implied. See the License for the specific language governing permissions and limitations under the License."
          }
        ],
        "status": "accepted",
        "intent": "original-order",
        "code": {
          "coding": [
            {
              "system": "SNOMED-CT",
              "code": "430193006",
              "display": "Medication Reconciliation (procedure)"
            }
          ]
        },
        "description": "Care_Plan_Start Task 1",
        "for": {
          "reference": "Patient/Patient-441",
          "display": "Bessie Lucas Kirk"
        },
        "context": {
          "reference": "Encounter/Encounter-5951",
          "display": "Ambulatory_Encounter"
        },
        "executionPeriod": {
          "start": "2020-04-25T00:00:00-04:00",
          "end": "2020-04-25T00:00:00-04:00"
        },
        "authoredOn": "2020-04-25T00:00:00-04:00",
        "requester": {
          "agent": {
            "reference": "Practitioner/Practitioner-54",
            "display": "Anita Preston Garner MD"
          },
          "onBehalfOf": {
            "reference": "Organization/Organization-1015",
            "display": "Mother Charity Hospital"
          }
        }
      },
      "request": {
        "method": "PUT",
        "url": "http://localhost:8080/cqf-ruler/baseDstu3/Task/Task-162315"
      }
    },
    {
      "fullUrl": "http://localhost:8080/cqf-ruler/baseDstu3/CarePlan/CarePlan-162314",
      "resource": {
        "resourceType": "CarePlan",
        "id": "CarePlan-162314",
        "extension": [
          {
            "url": "http://mihin.org/extension/copyright",
            "valueString": "Copyright 2014-2018 Michigan Health Information Network Shared Services. Licensed under the Apache License, Version 2.0 (the 'License'); you may not use this file except in compliance with the License. You may obtain a copy of the License at  http://www.apache.org/licenses/LICENSE-2.0.  Unless required by applicable law or agreed to in writing, software distributed under the License is distributed on an 'AS IS' BASIS, WITHOUT WARRANTIES OR CONDITIONS OF ANY KIND, either express or implied. See the License for the specific language governing permissions and limitations under the License."
          }
        ],
        "identifier": [
          {
            "use": "official",
            "system": "mihin.org/fhir/sid/elementId",
            "value": "2cc5774d-622a-4a6c-9a39-f7e364678da8"
          }
        ],
        "status": "active",
        "category": [
          {
            "coding": [
              {
                "system": "http://snomed.info/sct",
                "code": "430193006",
                "display": "Medication Reconciliation (procedure)"
              }
            ]
          }
        ],
        "subject": {
          "reference": "Patient/Patient-441",
          "display": "Bessie Lucas Kirk"
        },
        "context": {
          "reference": "Encounter/Encounter-5951",
          "display": "Ambulatory_Encounter"
        },
        "period": {
          "start": "2020-04-25T00:00:00-04:00",
          "end": "2020-04-25T00:00:00-04:00"
        },
        "author": [
          {
            "reference": "Practitioner/Practitioner-54",
            "display": "Anita Preston Garner MD"
          }
        ],
        "activity": [
          {
            "reference": {
              "reference": "Task/Task-162315",
              "display": "Care_Plan_Start Task 1"
            }
          }
        ]
      },
      "request": {
        "method": "PUT",
        "url": "http://localhost:8080/cqf-ruler/baseDstu3/CarePlan/CarePlan-162314"
      }
    },
    {
      "fullUrl": "http://localhost:8080/cqf-ruler/baseDstu3/Procedure/Procedure-162316",
      "resource": {
        "resourceType": "Procedure",
        "id": "Procedure-162316",
        "meta": {
          "profile": [
            "http://hl7.org/fhir/us/hedis/StructureDefinition/hedis-procedure"
          ]
        },
        "extension": [
          {
            "url": "http://mihin.org/extension/copyright",
            "valueString": "Copyright 2014-2018 Michigan Health Information Network Shared Services. Licensed under the Apache License, Version 2.0 (the 'License'); you may not use this file except in compliance with the License. You may obtain a copy of the License at  http://www.apache.org/licenses/LICENSE-2.0.  Unless required by applicable law or agreed to in writing, software distributed under the License is distributed on an 'AS IS' BASIS, WITHOUT WARRANTIES OR CONDITIONS OF ANY KIND, either express or implied. See the License for the specific language governing permissions and limitations under the License."
          }
        ],
        "identifier": [
          {
            "use": "official",
            "system": "mihin.org/fhir/sid/elementId",
            "value": "ffa912a7-09f5-46b9-91ad-24adb0865a2f"
          }
        ],
        "status": "completed",
        "code": {
          "coding": [
            {
              "system": "http://snomed.info/sct",
              "code": "430193006",
              "display": "Medication Reconciliation (procedure)"
            }
          ]
        },
        "subject": {
          "reference": "Patient/Patient-441",
          "display": "Bessie Lucas Kirk"
        },
        "context": {
          "reference": "Encounter/Encounter-5951",
          "display": "Ambulatory_Encounter"
        },
        "performedPeriod": {
          "start": "2020-04-25T00:00:00-04:00",
          "end": "2020-04-25T00:00:00-04:00"
        },
        "performer": [
          {
            "actor": {
              "reference": "Practitioner/Practitioner-54",
              "display": "Anita Preston Garner MD"
            }
          }
        ],
        "location": {
          "reference": "Location/Location-181",
          "display": "Mother Charity Hospital"
        }
      },
      "request": {
        "method": "PUT",
        "url": "http://localhost:8080/cqf-ruler/baseDstu3/Procedure/Procedure-162316"
      }
    }
  ]
}