{
  "resourceType": "Bundle",
  "id": "Marie-Dianne-Donaldson-467-Encounter-3988",
  "type": "transaction",
  "entry": [
    {
      "fullUrl": "http://localhost:8080/cqf-ruler/baseDstu3/Encounter/Encounter-3988",
      "resource": {
        "resourceType": "Encounter",
        "id": "Encounter-3988",
        "meta": {
          "profile": [
            "http://hl7.org/fhir/us/hedis/StructureDefinition/hedis-encounter"
          ]
        },
        "extension": [
          {
            "url": "http://mihin.org/extension/copyright",
            "valueString": "Copyright 2014-2018 Michigan Health Information Network Shared Services. Licensed under the Apache License, Version 2.0 (the 'License'); you may not use this file except in compliance with the License. You may obtain a copy of the License at  http://www.apache.org/licenses/LICENSE-2.0.  Unless required by applicable law or agreed to in writing, software distributed under the License is distributed on an 'AS IS' BASIS, WITHOUT WARRANTIES OR CONDITIONS OF ANY KIND, either express or implied. See the License for the specific language governing permissions and limitations under the License."
          }
        ],
        "status": "finished",
        "class": {
          "system": "http://hl7.org/fhir/encounter-class",
          "code": "ambulatory",
          "display": "ambulatory"
        },
        "type": [
          {
            "coding": [
              {
                "system": "http://www.ama-assn.org/go/cpt",
                "code": "99203",
                "display": "Combined Office Visits"
              }
            ]
          }
        ],
        "subject": {
          "reference": "Patient/Patient-467",
          "display": "Marie Dianne Donaldson"
        },
        "participant": [
          {
            "period": {
              "start": "2019-03-04T00:00:00-05:00",
              "end": "2019-03-04T00:00:00-05:00"
            },
            "individual": {
              "reference": "Practitioner/Practitioner-41",
              "display": "Melissa Lena Snyder MD"
            }
          }
        ],
        "period": {
          "start": "2019-03-04T00:00:00-05:00",
          "end": "2019-03-04T00:00:00-05:00"
        },
        "location": [
          {
            "location": {
              "reference": "Location/Location-168",
              "display": "St. Michael's Hospital"
            }
          }
        ],
        "serviceProvider": {
          "reference": "Organization/Organization-1014",
          "display": "St. Michael's Hospital"
        }
      },
      "request": {
        "method": "PUT",
        "url": "http://localhost:8080/cqf-ruler/baseDstu3/Encounter/Encounter-3988"
      }
    },
    {
      "fullUrl": "http://localhost:8080/cqf-ruler/baseDstu3/Procedure/Procedure-117412",
      "resource": {
        "resourceType": "Procedure",
        "id": "Procedure-117412",
        "meta": {
          "profile": [
            "http://hl7.org/fhir/us/hedis/StructureDefinition/hedis-procedure"
          ]
        },
        "extension": [
          {
            "url": "http://mihin.org/extension/copyright",
            "valueString": "Copyright 2014-2018 Michigan Health Information Network Shared Services. Licensed under the Apache License, Version 2.0 (the 'License'); you may not use this file except in compliance with the License. You may obtain a copy of the License at  http://www.apache.org/licenses/LICENSE-2.0.  Unless required by applicable law or agreed to in writing, software distributed under the License is distributed on an 'AS IS' BASIS, WITHOUT WARRANTIES OR CONDITIONS OF ANY KIND, either express or implied. See the License for the specific language governing permissions and limitations under the License."
          }
        ],
        "identifier": [
          {
            "use": "official",
            "system": "mihin.org/fhir/sid/elementId",
            "value": "554b129a-7ebf-48c7-8488-0484572cc362"
          }
        ],
        "status": "completed",
        "code": {
          "coding": [
            {
              "system": "http://www.ama-assn.org/go/cpt",
              "code": "87620"
            }
          ]
        },
        "subject": {
          "reference": "Patient/Patient-467",
          "display": "Marie Dianne Donaldson"
        },
        "context": {
          "reference": "Encounter/Encounter-3988",
          "display": "Ambulatory_Encounter"
        },
        "performedPeriod": {
          "start": "2019-03-04T00:00:00-05:00",
          "end": "2019-03-04T00:00:00-05:00"
        },
        "performer": [
          {
            "actor": {
              "reference": "Practitioner/Practitioner-41",
              "display": "Melissa Lena Snyder MD"
            }
          }
        ],
        "location": {
          "reference": "Location/Location-168",
          "display": "St. Michael's Hospital"
        }
      },
      "request": {
        "method": "PUT",
        "url": "http://localhost:8080/cqf-ruler/baseDstu3/Procedure/Procedure-117412"
      }
    },
    {
      "fullUrl": "http://localhost:8080/cqf-ruler/baseDstu3/Observation/Observation-117413",
      "resource": {
        "resourceType": "Observation",
        "id": "Observation-117413",
        "meta": {
          "profile": [
            "http://hl7.org/fhir/us/hedis/StructureDefinition/hedis-observation"
          ]
        },
        "extension": [
          {
            "url": "http://mihin.org/extension/copyright",
            "valueString": "Copyright 2014-2018 Michigan Health Information Network Shared Services. Licensed under the Apache License, Version 2.0 (the 'License'); you may not use this file except in compliance with the License. You may obtain a copy of the License at  http://www.apache.org/licenses/LICENSE-2.0.  Unless required by applicable law or agreed to in writing, software distributed under the License is distributed on an 'AS IS' BASIS, WITHOUT WARRANTIES OR CONDITIONS OF ANY KIND, either express or implied. See the License for the specific language governing permissions and limitations under the License."
          }
        ],
        "identifier": [
          {
            "use": "official",
            "system": "mihin.org/fhir/sid/elementId",
            "value": "a2e1d1a7-7011-4f10-86d4-6a642d878a21"
          }
        ],
        "status": "final",
        "category": [
          {
            "coding": [
              {
                "system": "http://hl7.org/fhir/observation-category",
                "code": "exam",
                "display": "Exam"
              }
            ]
          }
        ],
        "code": {
          "coding": [
            {
              "system": "http://snomed.info/sct",
              "code": "289829007",
              "display": "Normal uterine cervix (finding)"
            }
          ]
        },
        "subject": {
          "reference": "Patient/Patient-467",
          "display": "Marie Dianne Donaldson"
        },
        "context": {
          "reference": "Encounter/Encounter-3988",
          "display": "Ambulatory_Encounter"
        },
        "effectiveDateTime": "2019-03-04T00:00:00-05:00",
        "performer": [
          {
            "reference": "Practitioner/Practitioner-41",
            "display": "Melissa Lena Snyder MD"
          }
        ],
        "valueString": "NEGATIVE"
      },
      "request": {
        "method": "PUT",
        "url": "http://localhost:8080/cqf-ruler/baseDstu3/Observation/Observation-117413"
      }
    },
    {
      "fullUrl": "http://localhost:8080/cqf-ruler/baseDstu3/Observation/Observation-117415",
      "resource": {
        "resourceType": "Observation",
        "id": "Observation-117415",
        "meta": {
          "profile": [
            "http://hl7.org/fhir/us/hedis/StructureDefinition/hedis-observation"
          ]
        },
        "extension": [
          {
            "url": "http://mihin.org/extension/copyright",
            "valueString": "Copyright 2014-2018 Michigan Health Information Network Shared Services. Licensed under the Apache License, Version 2.0 (the 'License'); you may not use this file except in compliance with the License. You may obtain a copy of the License at  http://www.apache.org/licenses/LICENSE-2.0.  Unless required by applicable law or agreed to in writing, software distributed under the License is distributed on an 'AS IS' BASIS, WITHOUT WARRANTIES OR CONDITIONS OF ANY KIND, either express or implied. See the License for the specific language governing permissions and limitations under the License."
          }
        ],
        "identifier": [
          {
            "use": "official",
            "system": "mihin.org/fhir/sid/elementId",
            "value": "88d089e9-e24f-4731-8647-8714dc5185b0"
          }
        ],
        "status": "final",
        "category": [
          {
            "coding": [
              {
                "system": "http://hl7.org/fhir/observation-category",
                "code": "exam",
                "display": "Exam"
              }
            ]
          }
        ],
        "code": {
          "coding": [
            {
              "system": "http://snomed.info/sct",
              "code": "439888000",
              "display": "Abnormal cervical Papanicolaou smear (finding)"
            }
          ]
        },
        "subject": {
          "reference": "Patient/Patient-467",
          "display": "Marie Dianne Donaldson"
        },
        "context": {
          "reference": "Encounter/Encounter-3988",
          "display": "Ambulatory_Encounter"
        },
        "effectiveDateTime": "2019-03-04T00:00:00-05:00",
        "performer": [
          {
            "reference": "Practitioner/Practitioner-41",
            "display": "Melissa Lena Snyder MD"
          }
        ],
        "valueString": "POSITIVE"
      },
      "request": {
        "method": "PUT",
        "url": "http://localhost:8080/cqf-ruler/baseDstu3/Observation/Observation-117415"
      }
    },
    {
      "fullUrl": "http://localhost:8080/cqf-ruler/baseDstu3/DiagnosticReport/DiagnosticReport-117416",
      "resource": {
        "resourceType": "DiagnosticReport",
        "id": "DiagnosticReport-117416",
        "meta": {
          "profile": [
            "http://hl7.org/fhir/us/hedis/StructureDefinition/hedis-diagnosticreport"
          ]
        },
        "extension": [
          {
            "url": "http://mihin.org/extension/copyright",
            "valueString": "Copyright 2014-2018 Michigan Health Information Network Shared Services. Licensed under the Apache License, Version 2.0 (the 'License'); you may not use this file except in compliance with the License. You may obtain a copy of the License at  http://www.apache.org/licenses/LICENSE-2.0.  Unless required by applicable law or agreed to in writing, software distributed under the License is distributed on an 'AS IS' BASIS, WITHOUT WARRANTIES OR CONDITIONS OF ANY KIND, either express or implied. See the License for the specific language governing permissions and limitations under the License."
          }
        ],
        "identifier": [
          {
            "use": "official",
            "system": "mihin.org/fhir/sid/elementId",
            "value": "c4ff66dd-9b7a-4433-8a55-89a8f3834ea6"
          }
        ],
        "status": "final",
        "code": {
          "coding": [
            {
              "system": "http://loinc.org",
              "code": "19762-4"
            }
          ]
        },
        "subject": {
          "reference": "Patient/Patient-467",
          "display": "Marie Dianne Donaldson"
        },
        "context": {
          "reference": "Encounter/Encounter-3988",
          "display": "Ambulatory_Encounter"
        },
        "effectivePeriod": {
          "start": "2019-03-04T00:00:00-05:00",
          "end": "2019-03-04T00:00:00-05:00"
        },
        "issued": "2019-03-04T00:00:00.000-05:00",
        "result": [
          {
            "reference": "Observation/Observation-117415",
            "display": "Cervical_Cancer_Report_Observation_1"
          }
        ]
      },
      "request": {
        "method": "PUT",
        "url": "http://localhost:8080/cqf-ruler/baseDstu3/DiagnosticReport/DiagnosticReport-117416"
      }
    }
  ]
}