{
  "resourceType": "MeasureReport",
  "id": "measurereport-denom-EXM125-8.0.000-expectedresults",
  "contained": [ {
    "resourceType": "Bundle",
    "id": "c8691f84-3d73-4570-8211-5696411b3fe8",
    "type": "collection",
    "entry": [ {
      "fullUrl": "be2e5cd9-f295-4ecf-9e31-d1143427e75a",
      "resource": {
        "resourceType": "List",
        "id": "be2e5cd9-f295-4ecf-9e31-d1143427e75a",
        "title": "numerator",
        "entry": [ {
          "item": {
            "reference": "denom-EXM125-3"
          }
        } ]
      }
    }, {
      "fullUrl": "DiagnosticReport/denom-EXM125-3",
      "resource": {
        "resourceType": "DiagnosticReport",
        "id": "denom-EXM125-3",
        "meta": {
          "profile": [ "http://hl7.org/fhir/us/core/StructureDefinition/us-core-diagnosticreport-note" ]
        },
        "status": "final",
        "code": {
          "coding": [ {
            "system": "http://loinc.org",
            "code": "24604-1",
            "display": "MG Breast Diagnostic Limited Views"
          } ]
        },
        "subject": {
          "reference": "Patient/denom-EXM125"
        },
        "effectivePeriod": {
          "start": "2016-11-01T00:00:00",
          "end": "2016-11-01T00:00:00"
        }
      }
    }, {
      "fullUrl": "14aba553-6dd8-4439-bfb4-11bb1c2f6ce9",
      "resource": {
        "resourceType": "List",
        "id": "14aba553-6dd8-4439-bfb4-11bb1c2f6ce9",
        "title": "denominator",
        "entry": [ {
          "item": {
            "reference": "denom-EXM125"
          }
        }, {
          "item": {
            "reference": "denom-EXM125-1"
          }
        } ]
      }
    }, {
      "fullUrl": "Patient/denom-EXM125",
      "resource": {
        "resourceType": "Patient",
        "id": "denom-EXM125",
        "meta": {
          "profile": [ "http://hl7.org/fhir/us/core/StructureDefinition/us-core-patient" ]
        },
        "extension": [ {
          "url": "http://hl7.org/fhir/us/core/StructureDefinition/us-core-race",
          "extension": [ {
            "url": "ombCategory",
            "valueCoding": {
              "system": "urn:oid:2.16.840.1.113883.6.238",
              "code": "2028-9",
              "display": "Asian"
            }
          } ]
        }, {
          "url": "http://hl7.org/fhir/us/core/StructureDefinition/us-core-ethnicity",
          "extension": [ {
            "url": "ombCategory",
            "valueCoding": {
              "system": "urn:oid:2.16.840.1.113883.6.238",
              "code": "2135-2",
              "display": "Hispanic or Latino"
            }
          } ]
        } ],
        "identifier": [ {
          "use": "usual",
          "type": {
            "coding": [ {
              "system": "http://terminology.hl7.org/CodeSystem/v2-0203",
              "code": "MR",
              "display": "Medical Record Number"
            } ]
          },
          "system": "http://hospital.smarthealthit.org",
          "value": "999999995"
        } ],
        "name": [ {
          "family": "Dunn",
          "given": [ "Dorothy" ]
        } ],
        "gender": "female",
        "birthDate": "1965-01-01"
      }
    }, {
      "fullUrl": "Encounter/denom-EXM125-1",
      "resource": {
        "resourceType": "Encounter",
        "id": "denom-EXM125-1",
        "meta": {
          "profile": [ "http://hl7.org/fhir/us/core/StructureDefinition/us-core-encounter" ]
        },
        "status": "finished",
        "class": {
          "system": "http://terminology.hl7.org/CodeSystem/v3-ActCode",
          "code": "AMB",
          "display": "ambulatory"
        },
        "type": [ {
          "coding": [ {
            "system": "http://www.ama-assn.org/go/cpt",
            "code": "99201",
            "display": "Office or other outpatient visit for the evaluation and management of a new patient, which requires these 3 key components: A problem focused history; A problem focused examination; Straightforward medical decision making. Counseling and/or coordination of care with other physicians, other qualified health care professionals, or agencies are provided consistent with the nature of the problem(s) and the patient's and/or family's needs. Usually, the presenting problem(s) are self limited or minor. Typically, 10 minutes are spent face-to-face with the patient and/or family."
          } ]
        } ],
        "subject": {
          "reference": "Patient/denom-EXM125"
        },
        "period": {
          "start": "2019-05-31T00:00:00-00:00",
          "end": "2019-05-31T00:00:00-00:00"
        }
      }
    }, {
      "fullUrl": "48ff6ecc-39b2-4190-ba70-ad5c4d9cd01f",
      "resource": {
        "resourceType": "List",
        "id": "48ff6ecc-39b2-4190-ba70-ad5c4d9cd01f",
        "title": "initial-population",
        "entry": [ {
          "item": {
            "reference": "denom-EXM125"
          }
        }, {
          "item": {
            "reference": "denom-EXM125-1"
          }
        } ]
      }
    } ]
  } ],
  "status": "complete",
  "type": "individual",
  "measure": "Measure/measure-EXM125-7.3.000",
  "subject": {
    "reference": "Patient/denom-EXM125"
  },
  "period": {
    "start": "2018-12-31T17:00:00-07:00",
    "end": "2019-12-30T17:00:00-07:00"
  },
  "group": [ {
    "id": "group-1",
    "population": [ {
      "code": {
        "coding": [ {
          "system": "http://terminology.hl7.org/CodeSystem/measure-population",
          "code": "initial-population",
          "display": "Initial Population"
        } ]
      },
      "count": 1
    }, {
      "code": {
        "coding": [ {
          "system": "http://terminology.hl7.org/CodeSystem/measure-population",
          "code": "numerator",
          "display": "Numerator"
        } ]
      },
      "count": 0
    }, {
      "code": {
        "coding": [ {
          "system": "http://terminology.hl7.org/CodeSystem/measure-population",
          "code": "denominator",
          "display": "Denominator"
        } ]
      },
      "count": 1
    }, {
      "code": {
        "coding": [ {
          "system": "http://terminology.hl7.org/CodeSystem/measure-population",
          "code": "denominator-exclusion",
          "display": "Denominator Exclusion"
        } ]
      },
      "count": 0
    } ],
    "measureScore": {
      "value": 0.0
    }
  } ],
  "evaluatedResource": [ {
    "reference": "#c8691f84-3d73-4570-8211-5696411b3fe8"
  } ]
}