{
  "resourceType": "Bundle",
  "id": "Jeanette-Ann-Erickson-427-Encounter-457",
  "type": "transaction",
  "entry": [
    {
      "fullUrl": "http://localhost:8080/cqf-ruler/baseDstu3/Encounter/Encounter-457",
      "resource": {
        "resourceType": "Encounter",
        "id": "Encounter-457",
        "meta": {
          "profile": [
            "http://hl7.org/fhir/us/hedis/StructureDefinition/hedis-encounter"
          ]
        },
        "extension": [
          {
            "url": "http://mihin.org/extension/copyright",
            "valueString": "Copyright 2014-2018 Michigan Health Information Network Shared Services. Licensed under the Apache License, Version 2.0 (the 'License'); you may not use this file except in compliance with the License. You may obtain a copy of the License at  http://www.apache.org/licenses/LICENSE-2.0.  Unless required by applicable law or agreed to in writing, software distributed under the License is distributed on an 'AS IS' BASIS, WITHOUT WARRANTIES OR CONDITIONS OF ANY KIND, either express or implied. See the License for the specific language governing permissions and limitations under the License."
          }
        ],
        "status": "finished",
        "class": {
          "system": "http://hl7.org/fhir/encounter-class",
          "code": "ambulatory",
          "display": "ambulatory"
        },
        "type": [
          {
            "coding": [
              {
                "system": "http://snomed.info/sct",
                "code": "185462000",
                "display": "Combined Office Visits"
              }
            ]
          }
        ],
        "subject": {
          "reference": "Patient/Patient-427",
          "display": "Jeanette Ann Erickson"
        },
        "participant": [
          {
            "period": {
              "start": "2017-01-07T00:00:00-05:00",
              "end": "2017-01-07T00:00:00-05:00"
            },
            "individual": {
              "reference": "Practitioner/Practitioner-69",
              "display": "Betty Cooke Clay MD"
            }
          }
        ],
        "period": {
          "start": "2017-01-07T00:00:00-05:00",
          "end": "2017-01-07T00:00:00-05:00"
        },
        "location": [
          {
            "location": {
              "reference": "Location/Location-199",
              "display": "Ruth Israel Hospital"
            }
          }
        ],
        "serviceProvider": {
          "reference": "Organization/Organization-1022",
          "display": "Ruth Israel Hospital"
        }
      },
      "request": {
        "method": "PUT",
        "url": "http://localhost:8080/cqf-ruler/baseDstu3/Encounter/Encounter-457"
      }
    },
    {
      "fullUrl": "http://localhost:8080/cqf-ruler/baseDstu3/Procedure/Procedure-34067",
      "resource": {
        "resourceType": "Procedure",
        "id": "Procedure-34067",
        "meta": {
          "profile": [
            "http://hl7.org/fhir/us/hedis/StructureDefinition/hedis-procedure"
          ]
        },
        "extension": [
          {
            "url": "http://mihin.org/extension/copyright",
            "valueString": "Copyright 2014-2018 Michigan Health Information Network Shared Services. Licensed under the Apache License, Version 2.0 (the 'License'); you may not use this file except in compliance with the License. You may obtain a copy of the License at  http://www.apache.org/licenses/LICENSE-2.0.  Unless required by applicable law or agreed to in writing, software distributed under the License is distributed on an 'AS IS' BASIS, WITHOUT WARRANTIES OR CONDITIONS OF ANY KIND, either express or implied. See the License for the specific language governing permissions and limitations under the License."
          }
        ],
        "identifier": [
          {
            "use": "official",
            "system": "mihin.org/fhir/sid/elementId",
            "value": "e0cb8982-bade-4d05-b3b0-a694a5b2f99f"
          }
        ],
        "status": "completed",
        "code": {
          "coding": [
            {
              "system": "http://www.ama-assn.org/go/cpt",
              "code": "87621"
            }
          ]
        },
        "subject": {
          "reference": "Patient/Patient-427",
          "display": "Jeanette Ann Erickson"
        },
        "context": {
          "reference": "Encounter/Encounter-457",
          "display": "Ambulatory_Encounter"
        },
        "performedPeriod": {
          "start": "2017-01-07T00:00:00-05:00",
          "end": "2017-01-07T00:00:00-05:00"
        },
        "performer": [
          {
            "actor": {
              "reference": "Practitioner/Practitioner-69",
              "display": "Betty Cooke Clay MD"
            }
          }
        ],
        "location": {
          "reference": "Location/Location-199",
          "display": "Ruth Israel Hospital"
        }
      },
      "request": {
        "method": "PUT",
        "url": "http://localhost:8080/cqf-ruler/baseDstu3/Procedure/Procedure-34067"
      }
    },
    {
      "fullUrl": "http://localhost:8080/cqf-ruler/baseDstu3/Observation/Observation-34068",
      "resource": {
        "resourceType": "Observation",
        "id": "Observation-34068",
        "meta": {
          "profile": [
            "http://hl7.org/fhir/us/hedis/StructureDefinition/hedis-observation"
          ]
        },
        "extension": [
          {
            "url": "http://mihin.org/extension/copyright",
            "valueString": "Copyright 2014-2018 Michigan Health Information Network Shared Services. Licensed under the Apache License, Version 2.0 (the 'License'); you may not use this file except in compliance with the License. You may obtain a copy of the License at  http://www.apache.org/licenses/LICENSE-2.0.  Unless required by applicable law or agreed to in writing, software distributed under the License is distributed on an 'AS IS' BASIS, WITHOUT WARRANTIES OR CONDITIONS OF ANY KIND, either express or implied. See the License for the specific language governing permissions and limitations under the License."
          }
        ],
        "identifier": [
          {
            "use": "official",
            "system": "mihin.org/fhir/sid/elementId",
            "value": "cfcd6614-c509-4eb8-8a3e-6db7b6b1c6ed"
          }
        ],
        "status": "final",
        "category": [
          {
            "coding": [
              {
                "system": "http://hl7.org/fhir/observation-category",
                "code": "exam",
                "display": "Exam"
              }
            ]
          }
        ],
        "code": {
          "coding": [
            {
              "system": "http://snomed.info/sct",
              "code": "289829007",
              "display": "Normal uterine cervix (finding)"
            }
          ]
        },
        "subject": {
          "reference": "Patient/Patient-427",
          "display": "Jeanette Ann Erickson"
        },
        "context": {
          "reference": "Encounter/Encounter-457",
          "display": "Ambulatory_Encounter"
        },
        "effectiveDateTime": "2017-01-07T00:00:00-05:00",
        "performer": [
          {
            "reference": "Practitioner/Practitioner-69",
            "display": "Betty Cooke Clay MD"
          }
        ],
        "valueString": "NEGATIVE"
      },
      "request": {
        "method": "PUT",
        "url": "http://localhost:8080/cqf-ruler/baseDstu3/Observation/Observation-34068"
      }
    },
    {
      "fullUrl": "http://localhost:8080/cqf-ruler/baseDstu3/Observation/Observation-34070",
      "resource": {
        "resourceType": "Observation",
        "id": "Observation-34070",
        "meta": {
          "profile": [
            "http://hl7.org/fhir/us/hedis/StructureDefinition/hedis-observation"
          ]
        },
        "extension": [
          {
            "url": "http://mihin.org/extension/copyright",
            "valueString": "Copyright 2014-2018 Michigan Health Information Network Shared Services. Licensed under the Apache License, Version 2.0 (the 'License'); you may not use this file except in compliance with the License. You may obtain a copy of the License at  http://www.apache.org/licenses/LICENSE-2.0.  Unless required by applicable law or agreed to in writing, software distributed under the License is distributed on an 'AS IS' BASIS, WITHOUT WARRANTIES OR CONDITIONS OF ANY KIND, either express or implied. See the License for the specific language governing permissions and limitations under the License."
          }
        ],
        "identifier": [
          {
            "use": "official",
            "system": "mihin.org/fhir/sid/elementId",
            "value": "633ec5f5-192b-4e0a-88ff-812fee153495"
          }
        ],
        "status": "final",
        "category": [
          {
            "coding": [
              {
                "system": "http://hl7.org/fhir/observation-category",
                "code": "exam",
                "display": "Exam"
              }
            ]
          }
        ],
        "code": {
          "coding": [
            {
              "system": "http://snomed.info/sct",
              "code": "439888000",
              "display": "Abnormal cervical Papanicolaou smear (finding)"
            }
          ]
        },
        "subject": {
          "reference": "Patient/Patient-427",
          "display": "Jeanette Ann Erickson"
        },
        "context": {
          "reference": "Encounter/Encounter-457",
          "display": "Ambulatory_Encounter"
        },
        "effectiveDateTime": "2017-01-07T00:00:00-05:00",
        "performer": [
          {
            "reference": "Practitioner/Practitioner-69",
            "display": "Betty Cooke Clay MD"
          }
        ],
        "valueString": "POSITIVE"
      },
      "request": {
        "method": "PUT",
        "url": "http://localhost:8080/cqf-ruler/baseDstu3/Observation/Observation-34070"
      }
    },
    {
      "fullUrl": "http://localhost:8080/cqf-ruler/baseDstu3/DiagnosticReport/DiagnosticReport-34071",
      "resource": {
        "resourceType": "DiagnosticReport",
        "id": "DiagnosticReport-34071",
        "meta": {
          "profile": [
            "http://hl7.org/fhir/us/hedis/StructureDefinition/hedis-diagnosticreport"
          ]
        },
        "extension": [
          {
            "url": "http://mihin.org/extension/copyright",
            "valueString": "Copyright 2014-2018 Michigan Health Information Network Shared Services. Licensed under the Apache License, Version 2.0 (the 'License'); you may not use this file except in compliance with the License. You may obtain a copy of the License at  http://www.apache.org/licenses/LICENSE-2.0.  Unless required by applicable law or agreed to in writing, software distributed under the License is distributed on an 'AS IS' BASIS, WITHOUT WARRANTIES OR CONDITIONS OF ANY KIND, either express or implied. See the License for the specific language governing permissions and limitations under the License."
          }
        ],
        "identifier": [
          {
            "use": "official",
            "system": "mihin.org/fhir/sid/elementId",
            "value": "58c60215-471e-446b-9616-58f02fabbcb6"
          }
        ],
        "status": "final",
        "code": {
          "coding": [
            {
              "system": "https://www.cms.gov/Medicare/Coding/MedHCPCSGenInfo",
              "code": "G0124"
            }
          ]
        },
        "subject": {
          "reference": "Patient/Patient-427",
          "display": "Jeanette Ann Erickson"
        },
        "context": {
          "reference": "Encounter/Encounter-457",
          "display": "Ambulatory_Encounter"
        },
        "effectivePeriod": {
          "start": "2017-01-07T00:00:00-05:00",
          "end": "2017-01-07T00:00:00-05:00"
        },
        "issued": "2017-01-07T00:00:00.000-05:00",
        "result": [
          {
            "reference": "Observation/Observation-34070",
            "display": "Cervical_Cancer_Report_Observation_1"
          }
        ]
      },
      "request": {
        "method": "PUT",
        "url": "http://localhost:8080/cqf-ruler/baseDstu3/DiagnosticReport/DiagnosticReport-34071"
      }
    }
  ]
}