{
  "resourceType": "Bundle",
  "id": "Ruth-Clara-Sutton-2666-Encounter-639",
  "type": "transaction",
  "entry": [
    {
      "fullUrl": "http://localhost:8080/cqf-ruler/baseDstu3/Encounter/Encounter-639",
      "resource": {
        "resourceType": "Encounter",
        "id": "Encounter-639",
        "meta": {
          "profile": [
            "http://hl7.org/fhir/us/hedis/StructureDefinition/hedis-encounter"
          ]
        },
        "extension": [
          {
            "url": "http://mihin.org/extension/copyright",
            "valueString": "Copyright 2014-2019 Michigan Health Information Network Shared Services. Licensed under the Apache License, Version 2.0 (the 'License'); you may not use this file except in compliance with the License. You may obtain a copy of the License at  http://www.apache.org/licenses/LICENSE-2.0.  Unless required by applicable law or agreed to in writing, software distributed under the License is distributed on an 'AS IS' BASIS, WITHOUT WARRANTIES OR CONDITIONS OF ANY KIND, either express or implied. See the License for the specific language governing permissions and limitations under the License."
          }
        ],
        "status": "finished",
        "class": {
          "system": "http://hl7.org/fhir/encounter-class",
          "code": "ambulatory",
          "display": "ambulatory"
        },
        "type": [
          {
            "coding": [
              {
                "system": "http://snomed.info/sct",
                "code": "185464004",
                "display": "Combined Office Visits"
              }
            ]
          }
        ],
        "subject": {
          "reference": "Patient/Patient-2666",
          "display": "Ruth Clara Sutton"
        },
        "participant": [
          {
            "period": {
              "start": "2018-01-21T10:15:00-05:00",
              "end": "2018-01-21T10:15:00-05:00"
            },
            "individual": {
              "reference": "Practitioner/Practitioner-2278",
              "display": "Peggy Katrina Walter MD"
            }
          }
        ],
        "period": {
          "start": "2018-01-21T10:15:00-05:00",
          "end": "2018-01-21T10:15:00-05:00"
        },
        "location": [
          {
            "location": {
              "reference": "Location/Location-199",
              "display": "Ruth Israel Hospital"
            }
          }
        ],
        "serviceProvider": {
          "reference": "Organization/Organization-1022",
          "display": "Ruth Israel Hospital"
        }
      },
      "request": {
        "method": "PUT",
        "url": "http://localhost:8080/cqf-ruler/baseDstu3/Encounter/Encounter-639"
      }
    },
    {
      "fullUrl": "http://localhost:8080/cqf-ruler/baseDstu3/Procedure/Procedure-70645",
      "resource": {
        "resourceType": "Procedure",
        "id": "Procedure-70645",
        "meta": {
          "profile": [
            "http://hl7.org/fhir/us/hedis/StructureDefinition/hedis-procedure"
          ]
        },
        "extension": [
          {
            "url": "http://mihin.org/extension/copyright",
            "valueString": "Copyright 2014-2019 Michigan Health Information Network Shared Services. Licensed under the Apache License, Version 2.0 (the 'License'); you may not use this file except in compliance with the License. You may obtain a copy of the License at  http://www.apache.org/licenses/LICENSE-2.0.  Unless required by applicable law or agreed to in writing, software distributed under the License is distributed on an 'AS IS' BASIS, WITHOUT WARRANTIES OR CONDITIONS OF ANY KIND, either express or implied. See the License for the specific language governing permissions and limitations under the License."
          }
        ],
        "identifier": [
          {
            "use": "official",
            "system": "mihin.org/fhir/sid/elementId",
            "value": "c8288864-c9bc-4c6b-ac68-442f389374a4"
          }
        ],
        "status": "completed",
        "code": {
          "coding": [
            {
              "system": "http://www.ama-assn.org/go/cpt",
              "code": "77067"
            }
          ]
        },
        "subject": {
          "reference": "Patient/Patient-2666",
          "display": "Ruth Clara Sutton"
        },
        "context": {
          "reference": "Encounter/Encounter-639",
          "display": "Ambulatory_Encounter"
        },
        "performedPeriod": {
          "start": "2018-01-21T10:15:00-05:00",
          "end": "2018-01-21T10:15:00-05:00"
        },
        "performer": [
          {
            "actor": {
              "reference": "Practitioner/Practitioner-2278",
              "display": "Peggy Katrina Walter MD"
            }
          }
        ],
        "location": {
          "reference": "Location/Location-199",
          "display": "Ruth Israel Hospital"
        }
      },
      "request": {
        "method": "PUT",
        "url": "http://localhost:8080/cqf-ruler/baseDstu3/Procedure/Procedure-70645"
      }
    },
    {
      "fullUrl": "http://localhost:8080/cqf-ruler/baseDstu3/Observation/Observation-70646",
      "resource": {
        "resourceType": "Observation",
        "id": "Observation-70646",
        "meta": {
          "profile": [
            "http://hl7.org/fhir/us/hedis/StructureDefinition/hedis-observation"
          ]
        },
        "extension": [
          {
            "url": "http://mihin.org/extension/copyright",
            "valueString": "Copyright 2014-2019 Michigan Health Information Network Shared Services. Licensed under the Apache License, Version 2.0 (the 'License'); you may not use this file except in compliance with the License. You may obtain a copy of the License at  http://www.apache.org/licenses/LICENSE-2.0.  Unless required by applicable law or agreed to in writing, software distributed under the License is distributed on an 'AS IS' BASIS, WITHOUT WARRANTIES OR CONDITIONS OF ANY KIND, either express or implied. See the License for the specific language governing permissions and limitations under the License."
          }
        ],
        "identifier": [
          {
            "use": "official",
            "system": "mihin.org/fhir/sid/elementId",
            "value": "eaefc63e-c594-4a3c-a70a-f8b35d66acb8"
          }
        ],
        "status": "final",
        "category": [
          {
            "coding": [
              {
                "system": "http://hl7.org/fhir/observation-category",
                "code": "exam",
                "display": "Exam"
              }
            ]
          }
        ],
        "code": {
          "coding": [
            {
              "system": "http://snomed.info/sct",
              "code": "168749009",
              "display": "Mammography normal (finding)"
            }
          ]
        },
        "subject": {
          "reference": "Patient/Patient-2666",
          "display": "Ruth Clara Sutton"
        },
        "context": {
          "reference": "Encounter/Encounter-639",
          "display": "Ambulatory_Encounter"
        },
        "effectiveDateTime": "2018-01-21T10:15:00-05:00",
        "performer": [
          {
            "reference": "Practitioner/Practitioner-2278",
            "display": "Peggy Katrina Walter MD"
          }
        ],
        "valueString": "NEGATIVE"
      },
      "request": {
        "method": "PUT",
        "url": "http://localhost:8080/cqf-ruler/baseDstu3/Observation/Observation-70646"
      }
    },
    {
      "fullUrl": "http://localhost:8080/cqf-ruler/baseDstu3/Observation/Observation-70647",
      "resource": {
        "resourceType": "Observation",
        "id": "Observation-70647",
        "meta": {
          "profile": [
            "http://hl7.org/fhir/us/hedis/StructureDefinition/hedis-observation"
          ]
        },
        "extension": [
          {
            "url": "http://mihin.org/extension/copyright",
            "valueString": "Copyright 2014-2019 Michigan Health Information Network Shared Services. Licensed under the Apache License, Version 2.0 (the 'License'); you may not use this file except in compliance with the License. You may obtain a copy of the License at  http://www.apache.org/licenses/LICENSE-2.0.  Unless required by applicable law or agreed to in writing, software distributed under the License is distributed on an 'AS IS' BASIS, WITHOUT WARRANTIES OR CONDITIONS OF ANY KIND, either express or implied. See the License for the specific language governing permissions and limitations under the License."
          }
        ],
        "identifier": [
          {
            "use": "official",
            "system": "mihin.org/fhir/sid/elementId",
            "value": "2c9fc3da-b2f9-4cb5-898c-7cf81699bf26"
          }
        ],
        "status": "final",
        "category": [
          {
            "coding": [
              {
                "system": "http://hl7.org/fhir/observation-category",
                "code": "exam",
                "display": "Exam"
              }
            ]
          }
        ],
        "code": {
          "coding": [
            {
              "system": "http://snomed.info/sct",
              "code": "397145000",
              "display": "Mammography assessment (Category 5) - Highly suggestive of malignancy"
            }
          ]
        },
        "subject": {
          "reference": "Patient/Patient-2666",
          "display": "Ruth Clara Sutton"
        },
        "context": {
          "reference": "Encounter/Encounter-639",
          "display": "Ambulatory_Encounter"
        },
        "effectiveDateTime": "2018-01-21T10:15:00-05:00",
        "performer": [
          {
            "reference": "Practitioner/Practitioner-2278",
            "display": "Peggy Katrina Walter MD"
          }
        ],
        "valueString": "POSITIVE"
      },
      "request": {
        "method": "PUT",
        "url": "http://localhost:8080/cqf-ruler/baseDstu3/Observation/Observation-70647"
      }
    },
    {
      "fullUrl": "http://localhost:8080/cqf-ruler/baseDstu3/DiagnosticReport/DiagnosticReport-70648",
      "resource": {
        "resourceType": "DiagnosticReport",
        "id": "DiagnosticReport-70648",
        "meta": {
          "profile": [
            "http://hl7.org/fhir/us/hedis/StructureDefinition/hedis-diagnosticreport"
          ]
        },
        "extension": [
          {
            "url": "http://mihin.org/extension/copyright",
            "valueString": "Copyright 2014-2019 Michigan Health Information Network Shared Services. Licensed under the Apache License, Version 2.0 (the 'License'); you may not use this file except in compliance with the License. You may obtain a copy of the License at  http://www.apache.org/licenses/LICENSE-2.0.  Unless required by applicable law or agreed to in writing, software distributed under the License is distributed on an 'AS IS' BASIS, WITHOUT WARRANTIES OR CONDITIONS OF ANY KIND, either express or implied. See the License for the specific language governing permissions and limitations under the License."
          }
        ],
        "identifier": [
          {
            "use": "official",
            "system": "mihin.org/fhir/sid/elementId",
            "value": "4e91f7aa-14b3-4a43-bb9f-1b9ddd8e4c83"
          }
        ],
        "status": "final",
        "code": {
          "coding": [
            {
              "system": "http://loinc.org",
              "code": "39153-2",
              "display": "Breast FFD mammogram screening"
            }
          ]
        },
        "subject": {
          "reference": "Patient/Patient-2666",
          "display": "Ruth Clara Sutton"
        },
        "context": {
          "reference": "Encounter/Encounter-639",
          "display": "Ambulatory_Encounter"
        },
        "effectivePeriod": {
          "start": "2018-01-21T10:15:00-05:00",
          "end": "2018-01-21T10:15:00-05:00"
        },
        "issued": "2018-01-21T10:15:00.000-05:00",
        "performer": [
          {
            "actor": {
              "reference": "Practitioner/Practitioner-2278",
              "display": "Peggy Katrina Walter MD"
            }
          }
        ],
        "result": [
          {
            "reference": "Observation/Observation-70647",
            "display": "Breast_Cancer_Report_Observation_1"
          }
        ]
      },
      "request": {
        "method": "PUT",
        "url": "http://localhost:8080/cqf-ruler/baseDstu3/DiagnosticReport/DiagnosticReport-70648"
      }
    }
  ]
}