{
  "resourceType": "Bundle",
  "id": "EXM349-FHIR3-2.9.000-bundle",
  "type": "transaction",
  "entry": [
    {
      "resource": {
        "resourceType": "ValueSet",
        "id": "2.16.840.1.114222.4.11.836",
        "url": "http://cts.nlm.nih.gov/fhir/ValueSet/2.16.840.1.114222.4.11.836",
        "identifier": [
          {
            "system": "urn:ietf:rfc:3986",
            "value": "2.16.840.1.114222.4.11.836"
          }
        ],
        "version": "20121025",
        "name": "Race",
        "title": "Race",
        "status": "active",
        "publisher": "NLM",
        "compose": {
          "include": [
            {
              "system": "http://www.cdc.gov/phin/resources/vocabulary/index.html",
              "version": "1.2",
              "concept": [
                {
                  "code": "1002-5",
                  "display": "American Indian or Alaska Native"
                },
                {
                  "code": "2028-9",
                  "display": "Asian"
                },
                {
                  "code": "2054-5",
                  "display": "Black or African American"
                },
                {
                  "code": "2076-8",
                  "display": "Native Hawaiian or Other Pacific Islander"
                },
                {
                  "code": "2106-3",
                  "display": "White"
                },
                {
                  "code": "2131-1",
                  "display": "Other Race"
                }
              ]
            }
          ]
        }
      },
      "request": {
        "method": "PUT",
        "url": "ValueSet/2.16.840.1.114222.4.11.836"
      }
    },
    {
      "resource": {
        "resourceType": "Patient",
        "id": "denom-EXM349-FHIR3",
        "meta": {
          "profile": [
            "http://hl7.org/fhir/us/core/StructureDefinition/us-core-patient"
          ]
        },
        "extension": [
          {
            "url": "http://hl7.org/fhir/us/core/StructureDefinition/us-core-race",
            "extension": [
              {
                "url": "ombCategory",
                "valueCoding": {
                  "system": "urn:oid:2.16.840.1.113883.6.238",
                  "code": "2054-5",
                  "display": "Black or African American"
                }
              }
            ]
          },
          {
            "url": "http://hl7.org/fhir/us/core/StructureDefinition/us-core-ethnicity",
            "extension": [
              {
                "url": "ombCategory",
                "valueCoding": {
                  "system": "urn:oid:2.16.840.1.113883.6.238",
                  "code": "2135-2",
                  "display": "Hispanic or Latino"
                }
              }
            ]
          }
        ],
        "identifier": [
          {
            "use": "usual",
            "type": {
              "coding": [
                {
                  "system": "http://terminology.hl7.org/CodeSystem/v2-0203",
                  "code": "MR",
                  "display": "Medical Record Number"
                }
              ]
            },
            "system": "http://hospital.smarthealthit.org",
            "value": "9999999910"
          }
        ],
        "name": [
          {
            "family": "Jones",
            "given": [
              "Rick"
            ]
          }
        ],
        "gender": "male",
        "birthDate": "1955-11-05"
      },
      "request": {
        "method": "PUT",
        "url": "Patient/denom-EXM349-FHIR3"
      }
    },
    {
      "resource": {
        "resourceType": "ValueSet",
        "id": "2.16.840.1.114222.4.11.837",
        "url": "http://cts.nlm.nih.gov/fhir/ValueSet/2.16.840.1.114222.4.11.837",
        "identifier": [
          {
            "system": "urn:ietf:rfc:3986",
            "value": "2.16.840.1.114222.4.11.837"
          }
        ],
        "version": "20121025",
        "name": "Ethnicity",
        "title": "Ethnicity",
        "status": "active",
        "publisher": "NLM",
        "compose": {
          "include": [
            {
              "system": "http://www.cdc.gov/phin/resources/vocabulary/index.html",
              "version": "1.2",
              "concept": [
                {
                  "code": "2135-2",
                  "display": "Hispanic or Latino"
                },
                {
                  "code": "2186-5",
                  "display": "Not Hispanic or Latino"
                }
              ]
            }
          ]
        }
      },
      "request": {
        "method": "PUT",
        "url": "ValueSet/2.16.840.1.114222.4.11.837"
      }
    },
    {
      "resource": {
        "resourceType": "Library",
        "id": "library-MATGlobalCommonFunctions-FHIR3-2.0.000",
        "text": {
          "status": "generated",
          "div": "<div xmlns=\"http://www.w3.org/1999/xhtml\"><table class=\"grid dict\"><tr><th scope=\"row\"><b>Id: </b></th><td style=\"padding-left: 25px; padding-right: 25px;\">library-MATGlobalCommonFunctions-FHIR3-2.0.000</td></tr><tr><th scope=\"row\"><b>Type: </b></th><td style=\"padding-right: 25px;\"><span><br/><span><span style=\"padding-left: 25px;\"><b>system: </b><span>http://hl7.org/fhir/codesystem-library-type.html</span><br/></span><span style=\"padding-left: 25px;\"><b>code: </b><span>logic-library</span></span></span></span></td></tr><tr><th scope=\"row\"><b>Version: </b></th><td style=\"padding-left: 25px; padding-right: 25px;\">2.0.000</td></tr><tr><th scope=\"row\"><b>Status: </b></th><td style=\"padding-left: 25px; padding-right: 25px;\">active</td></tr><tr style=\"vertical-align: top;\"><th rowspan=\"1\" scope=\"row\"><b>Related: </b></th><td style=\"padding-left: 25px; padding-right: 25px;\"><p style=\"margin-bottom: 5px;\"><b>type: </b><span>depends-on</span></p><p style=\"margin-bottom: 5px;\"><b>Resource: </b><br/><span><span style=\"padding-left: 25px;\"><b>reference: </b><span>Library/library-FHIRHelpers-3.0.0</span></span></span></p></td></tr><tr style=\"vertical-align: top;\"><th rowspan=\"7\" scope=\"row\"><b>Data Requirements: </b></th><td style=\"padding-left: 25px; padding-right: 25px;\"><div xmlns=\"http://www.w3.org/1999/xhtml\"><p style=\"margin-bottom: 5px;\"><b>type: </b><span>Encounter</span></p><p style=\"margin-bottom: 5px;\"><b>code filter:</b><br/><span style=\"padding-left: 25px;\"><b>path: </b><span>type</span></span><br/><span style=\"padding-left: 25px;\"><b>valueset: </b><span>http://cts.nlm.nih.gov/fhir/ValueSet/2.16.840.1.113883.3.666.5.307</span></span></p></div></td></tr><tr style=\"vertical-align: top;\"><td style=\"padding-left: 25px; padding-right: 25px;\"><div xmlns=\"http://www.w3.org/1999/xhtml\"><p style=\"margin-bottom: 5px;\"><b>type: </b><span>Encounter</span></p><p style=\"margin-bottom: 5px;\"><b>code filter:</b><br/><span style=\"padding-left: 25px;\"><b>path: </b><span>type</span></span><br/><span style=\"padding-left: 25px;\"><b>valueset: </b><span>http://cts.nlm.nih.gov/fhir/ValueSet/2.16.840.1.113883.3.117.1.7.1.292</span></span></p></div></td></tr><tr style=\"vertical-align: top;\"><td style=\"padding-left: 25px; padding-right: 25px;\"><div xmlns=\"http://www.w3.org/1999/xhtml\"><p style=\"margin-bottom: 5px;\"><b>type: </b><span>Condition</span></p></div></td></tr><tr style=\"vertical-align: top;\"><td style=\"padding-left: 25px; padding-right: 25px;\"><div xmlns=\"http://www.w3.org/1999/xhtml\"><p style=\"margin-bottom: 5px;\"><b>type: </b><span>Condition</span></p></div></td></tr><tr style=\"vertical-align: top;\"><td style=\"padding-left: 25px; padding-right: 25px;\"><div xmlns=\"http://www.w3.org/1999/xhtml\"><p style=\"margin-bottom: 5px;\"><b>type: </b><span>Location</span></p></div></td></tr><tr style=\"vertical-align: top;\"><td style=\"padding-left: 25px; padding-right: 25px;\"><div xmlns=\"http://www.w3.org/1999/xhtml\"><p style=\"margin-bottom: 5px;\"><b>type: </b><span>Provenance</span></p><p style=\"margin-bottom: 5px;\"><b>code filter:</b><br/><span style=\"padding-left: 25px;\"><b>path: </b><span>target</span></span></p></div></td></tr><tr style=\"vertical-align: top;\"><td style=\"padding-left: 25px; padding-right: 25px;\"><div xmlns=\"http://www.w3.org/1999/xhtml\"><p style=\"margin-bottom: 5px;\"><b>type: </b><span>Medication</span></p><p style=\"margin-bottom: 5px;\"><b>code filter:</b><br/><span style=\"padding-left: 25px;\"><b>path: </b><span>id</span></span></p></div></td></tr>    <!-- Filter down to human readable content --><tr style=\"vertical-align: top;\"><th scope=\"row\"><b>Content: </b></th><td style=\"padding-left: 25px; padding-right: 25px;\"><b>type: </b><span>text/cql</span></td></tr><tr><td colspan=\"2\" style=\"padding-left: 25px; padding-right: 25px;\"><pre><code class=\"language-cql\">library MATGlobalCommonFunctions_FHIR3 version '2.0.000'\n\n/*\nThis example is a work in progress and should not be considered a final specification\nor recommendation for guidance. This example will help guide and direct the process\nof finding conventions and usage patterns that meet the needs of the various stakeholders\nin the measure development community.\n*/\n\nusing FHIR version '3.0.0'\n\ninclude FHIRHelpers version '3.0.0' called FHIRHelpers\n\ncodesystem \"LOINC\": 'http://loinc.org'\ncodesystem \"SNOMEDCT\": 'http://snomed.info/sct/731000124108'\ncodesystem \"RoleCode\": 'http://hl7.org/fhir/v3/RoleCode'\ncodesystem \"Diagnosis Role\": 'http://hl7.org/fhir/diagnosis-role'\n\nvalueset \"Encounter Inpatient\": 'http://cts.nlm.nih.gov/fhir/ValueSet/2.16.840.1.113883.3.666.5.307'\nvalueset \"Emergency Department Visit\": 'http://cts.nlm.nih.gov/fhir/ValueSet/2.16.840.1.113883.3.117.1.7.1.292'\n\ncode \"Birthdate\": '21112-8' from \"LOINC\" display 'Birth date'\ncode \"Dead\": '419099009' from \"SNOMEDCT\" display 'Dead'\ncode \"ER\": 'ER' from \"RoleCode\" display 'Emergency room'\ncode \"ICU\": 'ICU' from \"RoleCode\" display 'Intensive care unit'\ncode \"Billing\": 'billing' from \"Diagnosis Role\" display 'Billing'\n\nparameter \"Measurement Period\" Interval&lt;DateTime&gt;\n\ncontext Patient\n\ndefine \"Inpatient Encounter\":\n\t[Encounter: \"Encounter Inpatient\"] EncounterInpatient\n\t\twhere EncounterInpatient.status = 'finished'\n\t\t    and \"LengthInDays\"(EncounterInpatient.period) &lt;= 120\n\t\t\tand EncounterInpatient.period ends during \"Measurement Period\"\n\ndefine function \"ToDate\"(Value DateTime):\n\tDateTime(year from Value, month from Value, day from Value, 0, 0, 0, 0, timezone from Value)\n\ndefine function \"CalendarAgeInDaysAt\"(BirthDateTime DateTime, AsOf DateTime):\n\tdays between ToDate(BirthDateTime)and ToDate(AsOf)\n\ndefine function \"CalendarAgeInDays\"(BirthDateTime DateTime):\n\tCalendarAgeInDaysAt(BirthDateTime, Today())\n\ndefine function \"CalendarAgeInMonthsAt\"(BirthDateTime DateTime, AsOf DateTime):\n\tmonths between ToDate(BirthDateTime)and ToDate(AsOf)\n\ndefine function \"CalendarAgeInMonths\"(BirthDateTime DateTime):\n\tCalendarAgeInMonthsAt(BirthDateTime, Today())\n\ndefine function \"CalendarAgeInYearsAt\"(BirthDateTime DateTime, AsOf DateTime):\n\tyears between ToDate(BirthDateTime)and ToDate(AsOf)\n\ndefine function \"CalendarAgeInYears\"(BirthDateTime DateTime):\n\tCalendarAgeInYearsAt(BirthDateTime, Today())\n\ndefine function \"LengthInDays\"(Value Interval&lt;DateTime&gt;):\n\tdifference in days between start of Value and end of Value\n\ndefine function \"ED Visit\"(TheEncounter FHIR.Encounter):\n    singleton from (\n        [Encounter: \"Emergency Department Visit\"] EDVisit\n            where EDVisit.status = 'finished'\n                and EDVisit.period ends 1 hour or less on or before start of FHIRHelpers.ToInterval(TheEncounter.period)\n    )\n\ndefine function \"Hospitalization\"(TheEncounter FHIR.Encounter):\n\t( \"ED Visit\"(TheEncounter) ) X\n    return\n        if X is null then TheEncounter.period\n        else Interval[start of FHIRHelpers.ToInterval(X.period), end of FHIRHelpers.ToInterval(TheEncounter.period)]\n\ndefine function \"Hospitalization Locations\"(TheEncounter FHIR.Encounter):\n\t( \"ED Visit\"(TheEncounter) ) EDEncounter\n    return\n        if EDEncounter is null then TheEncounter.location\n        else flatten { EDEncounter.location, TheEncounter.location }\n\ndefine function \"Hospitalization Length of Stay\"(TheEncounter FHIR.Encounter):\n\tLengthInDays(\"Hospitalization\"(TheEncounter))\n\ndefine function \"Hospital Admission Time\"(TheEncounter FHIR.Encounter):\n\tstart of \"Hospitalization\"(TheEncounter)\n\ndefine function \"Hospital Discharge Time\"(TheEncounter FHIR.Encounter):\n\tend of FHIRHelpers.ToInterval(TheEncounter.period)\n\ndefine function \"Hospital Arrival Time\"(TheEncounter FHIR.Encounter):\n\tstart of FHIRHelpers.ToInterval(First(\n\t    ( \"Hospitalization Locations\"(TheEncounter) ) HospitalLocation\n\t\t\tsort by start of FHIRHelpers.ToInterval(period)\n\t).period)\n\n// TODO - fix these (must fetch Location resources and compare id to reference)\n/*define function \"Hospital Departure Time\"(TheEncounter FHIR.Encounter):\n\tend of FHIRHelpers.ToInterval(Last(\n\t    ( \"Hospitalization Locations\"(TheEncounter) ) HospitalLocation\n\t\t\tsort by start of FHIRHelpers.ToInterval(period)\n\t).period)\n\ndefine function \"Emergency Department Arrival Time\"(TheEncounter FHIR.Encounter):\n\tstart of FHIRHelpers.ToInterval((\n\t    singleton from (\n\t        ( \"Hospitalization Locations\"(TheEncounter) ) HospitalLocation\n\t\t\t\twhere HospitalLocation.type ~ \"ER\"\n\t\t)\n\t).period)\n\ndefine function \"First Inpatient Intensive Care Unit\"(TheEncounter FHIR.Encounter):\n\tFirst(\n\t    ( TheEncounter.location ) HospitalLocation\n\t\t\twhere HospitalLocation.type ~ \"ICU\"\n\t\t\t\tand HospitalLocation.period during TheEncounter.period\n\t\t\tsort by start of FHIRHelpers.ToInterval(period)\n\t)*/\n\n/*\n*\n*    CQFMeasures Common Logic\n*\n*/\n\ndefine function \"Normalize Onset\"(onset Choice&lt;FHIR.dateTime, FHIR.Age, FHIR.Period, FHIR.Range, FHIR.string&gt;):\n  if onset is FHIR.dateTime then\n\t  Interval[FHIRHelpers.ToDateTime(onset as FHIR.dateTime), FHIRHelpers.ToDateTime(onset as FHIR.dateTime)]\n\telse if onset is FHIR.Period then\n\t  FHIRHelpers.ToInterval(onset as FHIR.Period)\n\telse if onset is FHIR.Age then\n\t  Interval[FHIRHelpers.ToDate(Patient.birthDate) + FHIRHelpers.ToQuantity(onset as FHIR.Age),\n\t\t  FHIRHelpers.ToDate(Patient.birthDate) + FHIRHelpers.ToQuantity(onset as FHIR.Age) + 1 year)\n\telse null\n\ndefine function \"Normalize Abatement\"(condition Condition):\n\tif condition.abatement is FHIR.dateTime then\n\t  Interval[FHIRHelpers.ToDateTime(condition.abatement as FHIR.dateTime), FHIRHelpers.ToDateTime(condition.abatement as FHIR.dateTime)]\n\telse if condition.abatement is FHIR.Period then\n\t  FHIRHelpers.ToInterval(condition.abatement as FHIR.Period)\n\telse if condition.abatement is FHIR.Age then\n\t\tInterval[FHIRHelpers.ToDate(Patient.birthDate) + FHIRHelpers.ToQuantity(condition.abatement as FHIR.Age),\n\t\t\tFHIRHelpers.ToDate(Patient.birthDate) + FHIRHelpers.ToQuantity(condition.abatement as FHIR.Age) + 1 year)\n\telse if condition.abatement is FHIR.boolean then\n\t  Interval[end of \"Normalize Onset\"(condition.onset), condition.assertedDate)\n\telse null\n\ndefine function \"GetPrevalencePeriod\"(condition Condition):\n  Interval[start of \"Normalize Onset\"(condition.onset), end of \"Normalize Abatement\"(condition))\n\ndefine function \"Normalize Interval\"(choice Choice&lt;FHIR.dateTime, FHIR.Period&gt;):\n  if choice is FHIR.dateTime then\n\t  Interval[FHIRHelpers.ToDateTime(choice as FHIR.dateTime), FHIRHelpers.ToDateTime(choice as FHIR.dateTime)]\n\telse\n\t  FHIRHelpers.ToInterval(choice as FHIR.Period)\n\ndefine function \"GetId\"(uri String):\n\tLast(Split(uri, '/'))\n\ndefine function \"EncounterDiagnosis\"(Encounter Encounter):\n  Encounter.diagnosis D\n    return singleton from ([Condition] C where C.id = \"GetId\"(D.condition.reference))\n\n// Returns the condition that is specified as the principal diagnosis for the encounter\ndefine function \"PrincipalDiagnosis\"(Encounter Encounter):\n\t(singleton from (Encounter.diagnosis D where D.role ~ ToConcept(\"Billing\") and D.rank = 1)) PD\n\t\treturn singleton from ([Condition] C where C.id = \"GetId\"(PD.condition.reference))\n\n// Returns the location for the given location reference\ndefine function GetLocation(reference Reference):\n  singleton from (\n    [Location] Location where Location.id.value = GetId(reference.reference)\n  )\n\n/*\nNOTE: Extensions are not the preferred approach, but are used as a way to access\ncontent that is defined by extensions but not yet surfaced in the\nCQL model info.\n*/\ndefine function \"GetExtensions\"(domainResource DomainResource, url String):\n  domainResource.extension E\n\t  where E.url = ('http://hl7.org/fhir/us/qicore/StructureDefinition/' + url)\n\t\treturn E\n\ndefine function \"GetExtension\"(domainResource DomainResource, url String):\n  singleton from \"GetExtensions\"(domainResource, url)\n\n/*\nNOTE: Extensions are not the preferred approach, but are used as a way to access\ncontent that is defined by extensions but not yet surfaced in the\nCQL model info.\n*/\ndefine function \"GetBaseExtensions\"(domainResource DomainResource, url String):\n  domainResource.extension E\n\t  where E.url = ('http://hl7.org/fhir/StructureDefinition/' + url)\n\t\treturn E\n\ndefine function \"GetBaseExtension\"(domainResource DomainResource, url String):\n  singleton from \"GetBaseExtensions\"(domainResource, url)\n\n/*\nNOTE: Provenance is not the preferred approach, this is provided only as an illustration\nfor what using Provenance could look like, and is not a tested pattern\n*/\ndefine function \"GetProvenance\"(resource Resource):\n  singleton from ([Provenance: target in resource.id])\n\ndefine function \"GetMedicationCode\"(request MedicationRequest):\n  if request.medication is CodeableConcept then\n\t  request.medication as CodeableConcept\n\telse\n\t  (singleton from ([Medication: id in GetId((request.medication as Reference).reference)])).code\n</code></pre>\r\n                    \r\n                    \r\n                </td>\r\n            </tr>\r\n        \r\n    </table>\r\n</div>"
        },
        "version": "2.0.000",
        "name": "MATGlobalCommonFunctions_FHIR3",
        "status": "active",
        "experimental": true,
        "type": {
          "coding": [
            {
              "system": "http://hl7.org/fhir/codesystem-library-type.html",
              "code": "logic-library"
            }
          ]
        },
        "relatedArtifact": [
          {
            "type": "depends-on",
            "resource": {
              "reference": "Library/library-FHIRHelpers-3.0.0"
            }
          }
        ],
        "dataRequirement": [
          {
            "type": "Encounter",
            "codeFilter": [
              {
                "path": "type",
                "valueSetString": "http://cts.nlm.nih.gov/fhir/ValueSet/2.16.840.1.113883.3.666.5.307"
              }
            ]
          },
          {
            "type": "Encounter",
            "codeFilter": [
              {
                "path": "type",
                "valueSetString": "http://cts.nlm.nih.gov/fhir/ValueSet/2.16.840.1.113883.3.117.1.7.1.292"
              }
            ]
          },
          {
            "type": "Condition"
          },
          {
            "type": "Condition"
          },
          {
            "type": "Location"
          },
          {
            "type": "Provenance",
            "codeFilter": [
              {
                "path": "target"
              }
            ]
          },
          {
            "type": "Medication",
            "codeFilter": [
              {
                "path": "id"
              }
            ]
          }
        ],
        "content": [
          {
            "contentType": "application/elm+xml",
            "data": ""
          },
          {
            "contentType": "text/cql",
            "data": ""
          }
        ]
      },
      "request": {
        "method": "PUT",
        "url": "Library/library-MATGlobalCommonFunctions-FHIR3-2.0.000"
      }
    },
    {
      "resource": {
        "resourceType": "Library",
        "id": "library-EXM349-FHIR3-2.9.000",
        "text": {
          "status": "generated",
          "div": "<div xmlns=\"http://www.w3.org/1999/xhtml\"><table class=\"grid dict\"><tr><th scope=\"row\"><b>Id: </b></th><td style=\"padding-left: 25px; padding-right: 25px;\">library-EXM349-FHIR3-2.9.000</td></tr><tr><th scope=\"row\"><b>Type: </b></th><td style=\"padding-right: 25px;\"><span><br/><span><span style=\"padding-left: 25px;\"><b>system: </b><span>http://hl7.org/fhir/codesystem-library-type.html</span><br/></span><span style=\"padding-left: 25px;\"><b>code: </b><span>logic-library</span></span></span></span></td></tr><tr><th scope=\"row\"><b>Version: </b></th><td style=\"padding-left: 25px; padding-right: 25px;\">2.9.000</td></tr><tr><th scope=\"row\"><b>Status: </b></th><td style=\"padding-left: 25px; padding-right: 25px;\">active</td></tr><tr style=\"vertical-align: top;\"><th rowspan=\"3\" scope=\"row\"><b>Related: </b></th><td style=\"padding-left: 25px; padding-right: 25px;\"><p style=\"margin-bottom: 5px;\"><b>type: </b><span>depends-on</span></p><p style=\"margin-bottom: 5px;\"><b>Resource: </b><br/><span><span style=\"padding-left: 25px;\"><b>reference: </b><span>Library/library-MATGlobalCommonFunctions-FHIR3-2.0.000</span></span></span></p></td></tr><tr style=\"vertical-align: top;\"><td style=\"padding-left: 25px; padding-right: 25px;\"><p style=\"margin-bottom: 5px;\"><b>type: </b><span>depends-on</span></p><p style=\"margin-bottom: 5px;\"><b>Resource: </b><br/><span><span style=\"padding-left: 25px;\"><b>reference: </b><span>Library/library-FHIRHelpers-3.0.0</span></span></span></p></td></tr><tr style=\"vertical-align: top;\"><td style=\"padding-left: 25px; padding-right: 25px;\"><p style=\"margin-bottom: 5px;\"><b>type: </b><span>depends-on</span></p><p style=\"margin-bottom: 5px;\"><b>Resource: </b><br/><span><span style=\"padding-left: 25px;\"><b>reference: </b><span>Library/library-SupplementalDataElements-FHIR3-1.0.0</span></span></span></p></td></tr><tr style=\"vertical-align: top;\"><th rowspan=\"8\" scope=\"row\"><b>Data Requirements: </b></th><td style=\"padding-left: 25px; padding-right: 25px;\"><div xmlns=\"http://www.w3.org/1999/xhtml\"><p style=\"margin-bottom: 5px;\"><b>type: </b><span>Encounter</span></p><p style=\"margin-bottom: 5px;\"><b>code filter:</b><br/><span style=\"padding-left: 25px;\"><b>path: </b><span>type</span></span><br/><span style=\"padding-left: 25px;\"><b>valueset: </b><span>http://cts.nlm.nih.gov/fhir/ValueSet/2.16.840.1.113883.3.464.1003.101.12.1022</span></span></p></div></td></tr><tr style=\"vertical-align: top;\"><td style=\"padding-left: 25px; padding-right: 25px;\"><div xmlns=\"http://www.w3.org/1999/xhtml\"><p style=\"margin-bottom: 5px;\"><b>type: </b><span>Encounter</span></p><p style=\"margin-bottom: 5px;\"><b>code filter:</b><br/><span style=\"padding-left: 25px;\"><b>path: </b><span>type</span></span><br/><span style=\"padding-left: 25px;\"><b>valueset: </b><span>http://cts.nlm.nih.gov/fhir/ValueSet/2.16.840.1.113883.3.464.1003.101.12.1023</span></span></p></div></td></tr><tr style=\"vertical-align: top;\"><td style=\"padding-left: 25px; padding-right: 25px;\"><div xmlns=\"http://www.w3.org/1999/xhtml\"><p style=\"margin-bottom: 5px;\"><b>type: </b><span>Encounter</span></p><p style=\"margin-bottom: 5px;\"><b>code filter:</b><br/><span style=\"padding-left: 25px;\"><b>path: </b><span>type</span></span><br/><span style=\"padding-left: 25px;\"><b>valueset: </b><span>http://cts.nlm.nih.gov/fhir/ValueSet/2.16.840.1.113883.3.464.1003.101.12.1024</span></span></p></div></td></tr><tr style=\"vertical-align: top;\"><td style=\"padding-left: 25px; padding-right: 25px;\"><div xmlns=\"http://www.w3.org/1999/xhtml\"><p style=\"margin-bottom: 5px;\"><b>type: </b><span>Encounter</span></p><p style=\"margin-bottom: 5px;\"><b>code filter:</b><br/><span style=\"padding-left: 25px;\"><b>path: </b><span>type</span></span><br/><span style=\"padding-left: 25px;\"><b>valueset: </b><span>http://cts.nlm.nih.gov/fhir/ValueSet/2.16.840.1.113883.3.464.1003.101.12.1025</span></span></p></div></td></tr><tr style=\"vertical-align: top;\"><td style=\"padding-left: 25px; padding-right: 25px;\"><div xmlns=\"http://www.w3.org/1999/xhtml\"><p style=\"margin-bottom: 5px;\"><b>type: </b><span>Encounter</span></p><p style=\"margin-bottom: 5px;\"><b>code filter:</b><br/><span style=\"padding-left: 25px;\"><b>path: </b><span>type</span></span><br/><span style=\"padding-left: 25px;\"><b>valueset: </b><span>http://cts.nlm.nih.gov/fhir/ValueSet/2.16.840.1.113883.3.464.1003.101.12.1001</span></span></p></div></td></tr><tr style=\"vertical-align: top;\"><td style=\"padding-left: 25px; padding-right: 25px;\"><div xmlns=\"http://www.w3.org/1999/xhtml\"><p style=\"margin-bottom: 5px;\"><b>type: </b><span>Condition</span></p><p style=\"margin-bottom: 5px;\"><b>code filter:</b><br/><span style=\"padding-left: 25px;\"><b>path: </b><span>code</span></span><br/><span style=\"padding-left: 25px;\"><b>valueset: </b><span>http://cts.nlm.nih.gov/fhir/ValueSet/2.16.840.1.113762.1.4.1056.54</span></span></p></div></td></tr><tr style=\"vertical-align: top;\"><td style=\"padding-left: 25px; padding-right: 25px;\"><div xmlns=\"http://www.w3.org/1999/xhtml\"><p style=\"margin-bottom: 5px;\"><b>type: </b><span>Observation</span></p><p style=\"margin-bottom: 5px;\"><b>code filter:</b><br/><span style=\"padding-left: 25px;\"><b>path: </b><span>code</span></span><br/><span style=\"padding-left: 25px;\"><b>valueset: </b><span>http://cts.nlm.nih.gov/fhir/ValueSet/2.16.840.1.113762.1.4.1056.50</span></span></p></div></td></tr><tr style=\"vertical-align: top;\"><td style=\"padding-left: 25px; padding-right: 25px;\"><div xmlns=\"http://www.w3.org/1999/xhtml\"><p style=\"margin-bottom: 5px;\"><b>type: </b><span>Observation</span></p><p style=\"margin-bottom: 5px;\"><b>code filter:</b><br/><span style=\"padding-left: 25px;\"><b>path: </b><span>code</span></span></p></div></td></tr>    <!-- Filter down to human readable content --><tr style=\"vertical-align: top;\"><th scope=\"row\"><b>Content: </b></th><td style=\"padding-left: 25px; padding-right: 25px;\"><b>type: </b><span>text/cql</span></td></tr><tr><td colspan=\"2\" style=\"padding-left: 25px; padding-right: 25px;\"><pre><code class=\"language-cql\">library EXM349_FHIR3 version '2.9.000'\n\n/*\nBased on CMS349v2 - HIV Screening\n*/\n\nusing FHIR version '3.0.0'\n\ninclude MATGlobalCommonFunctions_FHIR3 version '2.0.000' called Global\ninclude FHIRHelpers version '3.0.0' called FHIRHelpers\ninclude SupplementalDataElements_FHIR3 version '1.0.0' called SDE\n\ncodesystem \"LOINC\": 'http://loinc.org'\n\nvalueset \"Conditions Due To Human Immunodeficiency Virus (HIV)\": 'http://cts.nlm.nih.gov/fhir/ValueSet/2.16.840.1.113762.1.4.1056.54'\nvalueset \"Ethnicity\": 'http://cts.nlm.nih.gov/fhir/ValueSet/2.16.840.1.114222.4.11.837'\nvalueset \"Human Immunodeficiency Virus (HIV) Laboratory Test Codes (Ab and Ag)\": 'http://cts.nlm.nih.gov/fhir/ValueSet/2.16.840.1.113762.1.4.1056.50'\nvalueset \"Office Visit\": 'http://cts.nlm.nih.gov/fhir/ValueSet/2.16.840.1.113883.3.464.1003.101.12.1001'\nvalueset \"ONC Administrative Sex\": 'http://cts.nlm.nih.gov/fhir/ValueSet/2.16.840.1.113762.1.4.1'\nvalueset \"Payer\": 'http://cts.nlm.nih.gov/fhir/ValueSet/2.16.840.1.114222.4.11.3591'\nvalueset \"Preventive Care Services - Established Office Visit, 18 and Up\": 'http://cts.nlm.nih.gov/fhir/ValueSet/2.16.840.1.113883.3.464.1003.101.12.1025'\nvalueset \"Preventive Care Services, Initial Office Visit, 0 to 17\": 'http://cts.nlm.nih.gov/fhir/ValueSet/2.16.840.1.113883.3.464.1003.101.12.1022'\nvalueset \"Preventive Care Services-Initial Office Visit, 18 and Up\": 'http://cts.nlm.nih.gov/fhir/ValueSet/2.16.840.1.113883.3.464.1003.101.12.1023'\nvalueset \"Preventive Care, Established Office Visit, 0 to 17\": 'http://cts.nlm.nih.gov/fhir/ValueSet/2.16.840.1.113883.3.464.1003.101.12.1024'\nvalueset \"Race\": 'http://cts.nlm.nih.gov/fhir/ValueSet/2.16.840.1.114222.4.11.836'\n\ncode \"HIV 1 and 2 tests - Meaningful Use set\": '75622-1' from \"LOINC\" display 'HIV 1 and 2 tests - Meaningful Use set'\n\nparameter \"Measurement Period\" Interval&lt;DateTime&gt; default Interval[@2019-01-01T00:00:00.0, @2020-01-01T00:00:00.0)\n\ncontext Patient\n\ndefine \"SDE Ethnicity\":\n\t SDE.\"SDE Ethnicity\"\n\ndefine \"SDE Payer\":\n\tSDE.\"SDE Payer\"\n\ndefine \"SDE Race\":\n\tSDE.\"SDE Race\"\n\ndefine \"SDE Sex\":\n\tSDE.\"SDE Sex\"\n\ndefine \"Qualifying Encounters\":\n\t( [Encounter: \"Preventive Care Services, Initial Office Visit, 0 to 17\"]\n\t\tunion [Encounter: \"Preventive Care Services-Initial Office Visit, 18 and Up\"]\n\t\tunion [Encounter: \"Preventive Care, Established Office Visit, 0 to 17\"]\n\t\tunion [Encounter: \"Preventive Care Services - Established Office Visit, 18 and Up\"]\n\t\tunion [Encounter: \"Office Visit\"] ) ValidEncounter\n\t\twhere ValidEncounter.status = 'finished'\n\t\tand ValidEncounter.period during \"Measurement Period\"\n\ndefine \"Denominator\":\n\t\"Initial Population\"\n\ndefine \"Denominator Exclusion\":\n\texists ( [Condition: code in \"Conditions Due To Human Immunodeficiency Virus (HIV)\"] HIVConditions\n\t\t\twhere HIVConditions.clinicalStatus = 'active'\n\t\t\tand HIVConditions.verificationStatus = 'confirmed'\n\t\t\tand (HIVConditions.onset as dateTime) before start of \"Measurement Period\"\n\t)\n\ndefine \"Numerator\":\n\texists ( \"HIV Test Performed\" )\n\ndefine \"HIV Test Performed\":\n\t( [Observation: \"Human Immunodeficiency Virus (HIV) Laboratory Test Codes (Ab and Ag)\"]\n\t\tunion [Observation: \"HIV 1 and 2 tests - Meaningful Use set\"] ) HIVTest\n\t\twhere (\n\t\t\t\t( Global.\"CalendarAgeInYearsAt\"(FHIRHelpers.ToDate(Patient.birthDate), HIVTest.effective as dateTime)&gt;= 15\n\t\t\t \t\tor Global.\"CalendarAgeInYearsAt\"(FHIRHelpers.ToDate(Patient.birthDate), start of HIVTest.effective)&gt;= 15)\n\t\t\t\t\tand  ( Global.\"CalendarAgeInYearsAt\"(FHIRHelpers.ToDate(Patient.birthDate), HIVTest.effective as dateTime)&lt; 66 )\n\t\t\t\t\t\tor Global.\"CalendarAgeInYearsAt\"(FHIRHelpers.ToDate(Patient.birthDate), start of HIVTest.effective)&lt; 66)\n\n\t\t\tand HIVTest.status in {'final', 'amended', 'corrected', 'preliminary'}\n\t\t\tand (\n\t\t\t\tHIVTest.effective starts before end of \"Measurement Period\"\n\t\t\t\t\tor HIVTest.effective as dateTime before end of \"Measurement Period\"\n\t\t\t)\n\ndefine \"Initial Population\":\n Global.\"CalendarAgeInYearsAt\"(FHIRHelpers.ToDate(Patient.birthDate), start of \"Measurement Period\")&gt;= 15\n\t\tand Global.\"CalendarAgeInYearsAt\"(FHIRHelpers.ToDate(Patient.birthDate), start of \"Measurement Period\")&lt; 66\n\t\tand exists \"Qualifying Encounters\"\n</code></pre>\r\n                    \r\n                    \r\n                </td>\r\n            </tr>\r\n        \r\n    </table>\r\n</div>"
        },
        "version": "2.9.000",
        "name": "EXM349_FHIR3",
        "status": "active",
        "experimental": true,
        "type": {
          "coding": [
            {
              "system": "http://hl7.org/fhir/codesystem-library-type.html",
              "code": "logic-library"
            }
          ]
        },
        "relatedArtifact": [
          {
            "type": "depends-on",
            "resource": {
              "reference": "Library/library-MATGlobalCommonFunctions-FHIR3-2.0.000"
            }
          },
          {
            "type": "depends-on",
            "resource": {
              "reference": "Library/library-FHIRHelpers-3.0.0"
            }
          },
          {
            "type": "depends-on",
            "resource": {
              "reference": "Library/library-SupplementalDataElements-FHIR3-1.0.0"
            }
          }
        ],
        "dataRequirement": [
          {
            "type": "Encounter",
            "codeFilter": [
              {
                "path": "type",
                "valueSetString": "http://cts.nlm.nih.gov/fhir/ValueSet/2.16.840.1.113883.3.464.1003.101.12.1022"
              }
            ]
          },
          {
            "type": "Encounter",
            "codeFilter": [
              {
                "path": "type",
                "valueSetString": "http://cts.nlm.nih.gov/fhir/ValueSet/2.16.840.1.113883.3.464.1003.101.12.1023"
              }
            ]
          },
          {
            "type": "Encounter",
            "codeFilter": [
              {
                "path": "type",
                "valueSetString": "http://cts.nlm.nih.gov/fhir/ValueSet/2.16.840.1.113883.3.464.1003.101.12.1024"
              }
            ]
          },
          {
            "type": "Encounter",
            "codeFilter": [
              {
                "path": "type",
                "valueSetString": "http://cts.nlm.nih.gov/fhir/ValueSet/2.16.840.1.113883.3.464.1003.101.12.1025"
              }
            ]
          },
          {
            "type": "Encounter",
            "codeFilter": [
              {
                "path": "type",
                "valueSetString": "http://cts.nlm.nih.gov/fhir/ValueSet/2.16.840.1.113883.3.464.1003.101.12.1001"
              }
            ]
          },
          {
            "type": "Condition",
            "codeFilter": [
              {
                "path": "code",
                "valueSetString": "http://cts.nlm.nih.gov/fhir/ValueSet/2.16.840.1.113762.1.4.1056.54"
              }
            ]
          },
          {
            "type": "Observation",
            "codeFilter": [
              {
                "path": "code",
                "valueSetString": "http://cts.nlm.nih.gov/fhir/ValueSet/2.16.840.1.113762.1.4.1056.50"
              }
            ]
          },
          {
            "type": "Observation",
            "codeFilter": [
              {
                "path": "code"
              }
            ]
          }
        ],
        "content": [
          {
            "contentType": "application/elm+xml",
            "data": ""
          },
          {
            "contentType": "text/cql",
            "data": ""
          }
        ]
      },
      "request": {
        "method": "PUT",
        "url": "Library/library-EXM349-FHIR3-2.9.000"
      }
    },
    {
      "resource": {
        "resourceType": "Library",
        "id": "library-SupplementalDataElements-FHIR3-1.0.0",
        "text": {
          "status": "generated",
          "div": "<div xmlns=\"http://www.w3.org/1999/xhtml\"><table class=\"grid dict\"><tr><th scope=\"row\"><b>Id: </b></th><td style=\"padding-left: 25px; padding-right: 25px;\">library-SupplementalDataElements-FHIR3-1.0.0</td></tr><tr><th scope=\"row\"><b>Type: </b></th><td style=\"padding-right: 25px;\"><span><br/><span><span style=\"padding-left: 25px;\"><b>system: </b><span>http://hl7.org/fhir/codesystem-library-type.html</span><br/></span><span style=\"padding-left: 25px;\"><b>code: </b><span>logic-library</span></span></span></span></td></tr><tr><th scope=\"row\"><b>Version: </b></th><td style=\"padding-left: 25px; padding-right: 25px;\">1.0.0</td></tr><tr><th scope=\"row\"><b>Status: </b></th><td style=\"padding-left: 25px; padding-right: 25px;\">active</td></tr><tr style=\"vertical-align: top;\"><th rowspan=\"1\" scope=\"row\"><b>Related: </b></th><td style=\"padding-left: 25px; padding-right: 25px;\"><p style=\"margin-bottom: 5px;\"><b>type: </b><span>depends-on</span></p><p style=\"margin-bottom: 5px;\"><b>Resource: </b><br/><span><span style=\"padding-left: 25px;\"><b>reference: </b><span>Library/library-FHIRHelpers-3.0.0</span></span></span></p></td></tr><tr style=\"vertical-align: top;\"><th rowspan=\"1\" scope=\"row\"><b>Data Requirements: </b></th><td style=\"padding-left: 25px; padding-right: 25px;\"><div xmlns=\"http://www.w3.org/1999/xhtml\"><p style=\"margin-bottom: 5px;\"><b>type: </b><span>Coverage</span></p><p style=\"margin-bottom: 5px;\"><b>code filter:</b><br/><span style=\"padding-left: 25px;\"><b>path: </b><span>type</span></span><br/><span style=\"padding-left: 25px;\"><b>valueset: </b><span>http://cts.nlm.nih.gov/fhir/ValueSet/2.16.840.1.114222.4.11.3591</span></span></p></div></td></tr>    <!-- Filter down to human readable content --><tr style=\"vertical-align: top;\"><th scope=\"row\"><b>Content: </b></th><td style=\"padding-left: 25px; padding-right: 25px;\"><b>type: </b><span>text/cql</span></td></tr><tr><td colspan=\"2\" style=\"padding-left: 25px; padding-right: 25px;\"><pre><code class=\"language-cql\">library SupplementalDataElements_FHIR3 version '1.0.0'\n\nusing FHIR version '3.0.0'\n\ninclude FHIRHelpers version '3.0.0' called FHIRHelpers\n\nvalueset \"ONC Administrative Sex\": 'http://cts.nlm.nih.gov/fhir/ValueSet/2.16.840.1.113762.1.4.1'\nvalueset \"Race\": 'http://cts.nlm.nih.gov/fhir/ValueSet/2.16.840.1.114222.4.11.836'\nvalueset \"Ethnicity\": 'http://cts.nlm.nih.gov/fhir/ValueSet/2.16.840.1.114222.4.11.837'\nvalueset \"Payer\": 'http://cts.nlm.nih.gov/fhir/ValueSet/2.16.840.1.114222.4.11.3591'\n\ncontext Patient\n\ndefine \"SDE Ethnicity\":\n  (flatten (\n    Patient.extension Extension\n      where Extension.url = 'http://hl7.org/fhir/us/core/StructureDefinition/us-core-ethnicity'\n        return Extension.extension\n  )) E\n    where E.url = 'ombCategory'\n      or E.url = 'detailed'\n    return E.value as Coding\n\ndefine \"SDE Payer\":\n    [Coverage: type in \"Payer\"] Payer\n      return {\n        code: Payer.type,\n        period: Payer.period\n      }\n\ndefine \"SDE Race\":\n  (flatten (\n    Patient.extension Extension\n      where Extension.url = 'http://hl7.org/fhir/us/core/StructureDefinition/us-core-race'\n        return Extension.extension\n  )) E\n    where E.url = 'ombCategory'\n      or E.url = 'detailed'\n    return E.value as Coding\n\ndefine \"SDE Sex\":\n  case\n    when Patient.gender = 'male' then Code { code: 'M', system: 'http://hl7.org/fhir/v3/AdministrativeGender', display: 'Male' }\n    when Patient.gender = 'female' then Code { code: 'F', system: 'http://hl7.org/fhir/v3/AdministrativeGender', display: 'Female' }\n    else null\n  end\n</code></pre>\r\n                    \r\n                    \r\n                </td>\r\n            </tr>\r\n        \r\n    </table>\r\n</div>"
        },
        "version": "1.0.0",
        "name": "SupplementalDataElements_FHIR3",
        "status": "active",
        "experimental": true,
        "type": {
          "coding": [
            {
              "system": "http://hl7.org/fhir/codesystem-library-type.html",
              "code": "logic-library"
            }
          ]
        },
        "relatedArtifact": [
          {
            "type": "depends-on",
            "resource": {
              "reference": "Library/library-FHIRHelpers-3.0.0"
            }
          }
        ],
        "dataRequirement": [
          {
            "type": "Coverage",
            "codeFilter": [
              {
                "path": "type",
                "valueSetString": "http://cts.nlm.nih.gov/fhir/ValueSet/2.16.840.1.114222.4.11.3591"
              }
            ]
          }
        ],
        "content": [
          {
            "contentType": "application/elm+xml",
            "data": ""
          },
          {
            "contentType": "text/cql",
            "data": ""
          }
        ]
      },
      "request": {
        "method": "PUT",
        "url": "Library/library-SupplementalDataElements-FHIR3-1.0.0"
      }
    },
    {
      "resource": {
        "resourceType": "Encounter",
        "id": "denom-EXM349-FHIR3-2",
        "meta": {
          "profile": [
            "http://hl7.org/fhir/us/core/StructureDefinition/us-core-encounter"
          ]
        },
        "status": "finished",
        "type": [
          {
            "coding": [
              {
                "system": "http://www.ama-assn.org/go/cpt",
                "code": "99386",
                "display": "Initial comprehensive preventive medicine evaluation and management of an individual including an age and gender appropriate history, examination, counseling/anticipatory guidance/risk factor reduction interventions, and the ordering of laboratory/diagnostic procedures, new patient; 40-64 years"
              }
            ]
          }
        ],
        "subject": {
          "reference": "Patient/denom-EXM349-FHIR3"
        },
        "period": {
          "start": "2019-08-21T00:00:00-06:00",
          "end": "2019-12-19T08:15:00-07:00"
        }
      },
      "request": {
        "method": "PUT",
        "url": "Encounter/denom-EXM349-FHIR3-2"
      }
    },
    {
      "resource": {
        "resourceType": "Library",
        "id": "library-FHIRHelpers-3.0.0",
        "text": {
          "status": "generated",
          "div": "<div xmlns=\"http://www.w3.org/1999/xhtml\"><table class=\"grid dict\"><tr><th scope=\"row\"><b>Id: </b></th><td style=\"padding-left: 25px; padding-right: 25px;\">library-FHIRHelpers-3.0.0</td></tr><tr><th scope=\"row\"><b>Type: </b></th><td style=\"padding-right: 25px;\"><span><br/><span><span style=\"padding-left: 25px;\"><b>system: </b><span>http://hl7.org/fhir/codesystem-library-type.html</span><br/></span><span style=\"padding-left: 25px;\"><b>code: </b><span>logic-library</span></span></span></span></td></tr><tr><th scope=\"row\"><b>Version: </b></th><td style=\"padding-left: 25px; padding-right: 25px;\">3.0.0</td></tr><tr><th scope=\"row\"><b>Status: </b></th><td style=\"padding-left: 25px; padding-right: 25px;\">active</td></tr>    <!-- Filter down to human readable content --><tr style=\"vertical-align: top;\"><th scope=\"row\"><b>Content: </b></th><td style=\"padding-left: 25px; padding-right: 25px;\"><b>type: </b><span>text/cql</span></td></tr><tr><td colspan=\"2\" style=\"padding-left: 25px; padding-right: 25px;\"><pre><code class=\"language-cql\">library FHIRHelpers version '3.0.0'\n\nusing FHIR version '3.0.0'\n\ndefine function ToInterval(period FHIR.Period):\n    if period is null then\n        null\n    else\n        Interval[period.\"start\".value, period.\"end\".value]\n\ndefine function ToQuantity(quantity FHIR.Quantity):\n    if quantity is null then\n        null\n    else\n        System.Quantity { value: quantity.value.value, unit: quantity.unit.value }\n\ndefine function ToInterval(range FHIR.Range):\n    if range is null then\n        null\n    else\n        Interval[ToQuantity(range.low), ToQuantity(range.high)]\n\ndefine function ToCode(coding FHIR.Coding):\n    if coding is null then\n        null\n    else\n        System.Code {\n          code: coding.code.value,\n          system: coding.system.value,\n          version: coding.version.value,\n          display: coding.display.value\n        }\n\ndefine function ToConcept(concept FHIR.CodeableConcept):\n    if concept is null then\n         null\n    else\n        System.Concept {\n            codes: concept.coding C return ToCode(C),\n            display: concept.text.value\n        }\n\ndefine function ToString(value FHIR.uuid): value.value\ndefine function ToString(value FHIR.TestScriptRequestMethodCode): value.value\ndefine function ToString(value FHIR.ProvenanceEntityRole): value.value\ndefine function ToString(value FHIR.UnitsOfTime): value.value\ndefine function ToString(value FHIR.AddressType): value.value\ndefine function ToString(value FHIR.AllergyIntoleranceCategory): value.value\ndefine function ToString(value FHIR.SpecimenStatus): value.value\ndefine function ToString(value FHIR.RestfulCapabilityMode): value.value\ndefine function ToString(value FHIR.DetectedIssueSeverity): value.value\ndefine function ToString(value FHIR.IssueSeverity): value.value\ndefine function ToString(value FHIR.CareTeamStatus): value.value\ndefine function ToString(value FHIR.DataElementStringency): value.value\ndefine function ToString(value FHIR.VisionEyes): value.value\ndefine function ToString(value FHIR.EncounterStatus): value.value\ndefine function ToString(value FHIR.StructureDefinitionKind): value.value\ndefine function ToString(value FHIR.PublicationStatus): value.value\ndefine function ToString(value FHIR.ConsentDataMeaning): value.value\ndefine function ToString(value FHIR.StructureMapSourceListMode): value.value\ndefine function ToString(value FHIR.RequestStatus): value.value\ndefine function ToString(value FHIR.QuestionnaireResponseStatus): value.value\ndefine function ToString(value FHIR.SearchComparator): value.value\ndefine function ToString(value FHIR.ChargeItemStatus): value.value\ndefine function ToString(value FHIR.ActionParticipantType): value.value\ndefine function ToString(value FHIR.AllergyIntoleranceType): value.value\ndefine function ToString(value FHIR.DocumentRelationshipType): value.value\ndefine function ToString(value FHIR.AllergyIntoleranceClinicalStatus): value.value\ndefine function ToString(value FHIR.CarePlanActivityStatus): value.value\ndefine function ToString(value FHIR.ActionList): value.value\ndefine function ToString(value FHIR.ParticipationStatus): value.value\ndefine function ToString(value FHIR.TestReportResult): value.value\ndefine function ToString(value FHIR.ConceptMapGroupUnmappedMode): value.value\ndefine function ToDateTime(value FHIR.instant): value.value\ndefine function ToDateTime(value FHIR.dateTime): value.value\ndefine function ToDate(value FHIR.date): value.value\ndefine function ToString(value FHIR.DocumentMode): value.value\ndefine function ToString(value FHIR.AssertionOperatorType): value.value\ndefine function ToString(value FHIR.DaysOfWeek): value.value\ndefine function ToString(value FHIR.IssueType): value.value\ndefine function ToString(value FHIR.ContentType): value.value\ndefine function ToString(value FHIR.StructureMapContextType): value.value\ndefine function ToString(value FHIR.FamilyHistoryStatus): value.value\ndefine function ToInteger(value FHIR.positiveInt): value.value\ndefine function ToString(value FHIR.ClinicalImpressionStatus): value.value\ndefine function ToString(value FHIR.AssertionResponseTypes): value.value\ndefine function ToString(value FHIR.RequestIntent): value.value\ndefine function ToString(value FHIR.NarrativeStatus): value.value\ndefine function ToString(value FHIR.MeasmntPrinciple): value.value\ndefine function ToString(value FHIR.ConsentExceptType): value.value\ndefine function ToString(value FHIR.string): value.value\ndefine function ToString(value FHIR.ActionRequiredBehavior): value.value\ndefine function ToString(value FHIR.EndpointStatus): value.value\ndefine function ToString(value FHIR.GuidePageKind): value.value\ndefine function ToString(value FHIR.GuideDependencyType): value.value\ndefine function ToString(value FHIR.ResourceVersionPolicy): value.value\ndefine function ToString(value FHIR.MedicationRequestStatus): value.value\ndefine function ToString(value FHIR.MedicationAdministrationStatus): value.value\ndefine function ToString(value FHIR.ActionCardinalityBehavior): value.value\ndefine function ToString(value FHIR.MedicationRequestIntent): value.value\ndefine function ToString(value FHIR.NamingSystemIdentifierType): value.value\ndefine function ToString(value FHIR.ImmunizationStatusCodes): value.value\ndefine function ToString(value FHIR.AccountStatus): value.value\ndefine function ToString(value FHIR.MedicationDispenseStatus): value.value\ndefine function ToString(value FHIR.ConfidentialityClassification): value.value\ndefine function ToString(value FHIR.IdentifierUse): value.value\ndefine function ToString(value FHIR.DigitalMediaType): value.value\ndefine function ToString(value FHIR.StructureMapTargetListMode): value.value\ndefine function ToString(value FHIR.TestReportParticipantType): value.value\ndefine function ToString(value FHIR.BindingStrength): value.value\ndefine function ToString(value FHIR.RequestPriority): value.value\ndefine function ToString(value FHIR.ParticipantRequired): value.value\ndefine function ToString(value FHIR.DiscriminatorType): value.value\ndefine function ToString(value FHIR.XPathUsageType): value.value\ndefine function ToString(value FHIR.StructureMapInputMode): value.value\ndefine function ToString(value FHIR.InstanceAvailability): value.value\ndefine function ToString(value FHIR.id): value.value\ndefine function ToString(value FHIR.LinkageType): value.value\ndefine function ToString(value FHIR.ReferenceHandlingPolicy): value.value\ndefine function ToString(value FHIR.MedicationStatus): value.value\ndefine function ToString(value FHIR.FilterOperator): value.value\ndefine function ToString(value FHIR.NamingSystemType): value.value\ndefine function ToString(value FHIR.ResearchStudyStatus): value.value\ndefine function ToString(value FHIR.ExtensionContext): value.value\ndefine function ToString(value FHIR.FHIRDefinedType): value.value\ndefine function ToString(value FHIR.AuditEventOutcome): value.value\ndefine function ToString(value FHIR.ActionRelationshipType): value.value\ndefine function ToString(value FHIR.ConstraintSeverity): value.value\ndefine function ToString(value FHIR.EventCapabilityMode): value.value\ndefine function ToString(value FHIR.ContractResourceStatusCodes): value.value\ndefine function ToString(value FHIR.ResearchSubjectStatus): value.value\ndefine function ToString(value FHIR.UDIEntryType): value.value\ndefine function ToString(value FHIR.DeviceMetricCategory): value.value\ndefine function ToString(value FHIR.TestReportActionResult): value.value\ndefine function ToString(value FHIR.StructureMapTransform): value.value\ndefine function ToString(value FHIR.ResponseType): value.value\ndefine function ToDecimal(value FHIR.decimal): value.value\ndefine function ToString(value FHIR.AggregationMode): value.value\ndefine function ToString(value FHIR.CapabilityStatementKind): value.value\ndefine function ToString(value FHIR.AllergyIntoleranceVerificationStatus): value.value\ndefine function ToString(value FHIR.EventTiming): value.value\ndefine function ToString(value FHIR.GoalStatus): value.value\ndefine function ToString(value FHIR.SearchParamType): value.value\ndefine function ToString(value FHIR.SystemRestfulInteraction): value.value\ndefine function ToString(value FHIR.ActionGroupingBehavior): value.value\ndefine function ToString(value FHIR.StructureMapModelMode): value.value\ndefine function ToString(value FHIR.TaskStatus): value.value\ndefine function ToString(value FHIR.AdverseEventCausality): value.value\ndefine function ToString(value FHIR.SubscriptionChannelType): value.value\ndefine function ToString(value FHIR.GraphCompartmentRule): value.value\ndefine function ToString(value FHIR.AssertionDirectionType): value.value\ndefine function ToString(value FHIR.CarePlanIntent): value.value\ndefine function ToString(value FHIR.SlicingRules): value.value\ndefine function ToString(value FHIR.ExplanationOfBenefitStatus): value.value\ndefine function ToString(value FHIR.ConsentState): value.value\ndefine function ToString(value FHIR.AdverseEventCategory): value.value\ndefine function ToString(value FHIR.LinkType): value.value\ndefine function ToString(value FHIR.AllergyIntoleranceCriticality): value.value\ndefine function ToString(value FHIR.MedicationRequestPriority): value.value\ndefine function ToString(value FHIR.ConceptMapEquivalence): value.value\ndefine function ToString(value FHIR.FHIRAllTypes): value.value\ndefine function ToString(value FHIR.PropertyRepresentation): value.value\ndefine function ToString(value FHIR.AuditEventAction): value.value\ndefine function ToString(value FHIR.TriggerType): value.value\ndefine function ToString(value FHIR.SearchModifierCode): value.value\ndefine function ToString(value FHIR.CompositionStatus): value.value\ndefine function ToString(value FHIR.AppointmentStatus): value.value\ndefine function ToString(value FHIR.MessageSignificanceCategory): value.value\ndefine function ToString(value FHIR.EventStatus): value.value\ndefine function ToString(value FHIR.OperationParameterUse): value.value\ndefine function ToString(value FHIR.ListMode): value.value\ndefine function ToString(value FHIR.ActionConditionKind): value.value\ndefine function ToString(value FHIR.ObservationStatus): value.value\ndefine function ToString(value FHIR.qualityType): value.value\ndefine function ToString(value FHIR.AdministrativeGender): value.value\ndefine function ToString(value FHIR.ResourceType): value.value\ndefine function ToString(value FHIR.QuestionnaireItemType): value.value\ndefine function ToBoolean(value FHIR.boolean): value.value\ndefine function ToString(value FHIR.StructureMapGroupTypeMode): value.value\ndefine function ToString(value FHIR.DeviceMetricCalibrationType): value.value\ndefine function ToString(value FHIR.code): value.value\ndefine function ToString(value FHIR.SupplyRequestStatus): value.value\ndefine function ToString(value FHIR.ActionSelectionBehavior): value.value\ndefine function ToString(value FHIR.EncounterLocationStatus): value.value\ndefine function ToString(value FHIR.SupplyDeliveryStatus): value.value\ndefine function ToString(value FHIR.DiagnosticReportStatus): value.value\ndefine function ToString(value FHIR.FlagStatus): value.value\ndefine function ToString(value FHIR.CarePlanStatus): value.value\ndefine function ToString(value FHIR.ConditionClinicalStatusCodes): value.value\ndefine function ToString(value FHIR.ListStatus): value.value\ndefine function Tobase64Binary(value FHIR.base64Binary): value.value\ndefine function ToString(value FHIR.DeviceUseStatementStatus): value.value\ndefine function ToString(value FHIR.AuditEventAgentNetworkType): value.value\ndefine function ToString(value FHIR.AddressUse): value.value\ndefine function ToString(value FHIR.ConditionalDeleteStatus): value.value\ndefine function ToString(value FHIR.ContactPointUse): value.value\ndefine function ToString(value FHIR.DeviceMetricOperationalStatus): value.value\ndefine function ToString(value FHIR.NutritionOrderStatus): value.value\ndefine function ToString(value FHIR.uri): value.value\ndefine function ToString(value FHIR.ContributorType): value.value\ndefine function ToString(value FHIR.ReferenceVersionRules): value.value\ndefine function ToString(value FHIR.Use): value.value\ndefine function ToString(value FHIR.IdentityAssuranceLevel): value.value\ndefine function ToString(value FHIR.MeasureReportStatus): value.value\ndefine function ToString(value FHIR.DeviceMetricColor): value.value\ndefine function ToString(value FHIR.SearchEntryMode): value.value\ndefine function ToTime(value FHIR.time): value.value\ndefine function ToString(value FHIR.ConditionalReadStatus): value.value\ndefine function ToString(value FHIR.ConditionVerificationStatus): value.value\ndefine function ToString(value FHIR.AllergyIntoleranceSeverity): value.value\ndefine function ToString(value FHIR.FinancialResourceStatusCodes): value.value\ndefine function ToString(value FHIR.OperationKind): value.value\ndefine function ToString(value FHIR.ObservationRelationshipType): value.value\ndefine function ToInteger(value FHIR.unsignedInt): value.value\ndefine function ToString(value FHIR.NameUse): value.value\ndefine function ToString(value FHIR.SubscriptionStatus): value.value\ndefine function ToString(value FHIR.DocumentReferenceStatus): value.value\ndefine function ToString(value FHIR.LocationMode): value.value\ndefine function ToInteger(value FHIR.integer): value.value\ndefine function ToString(value FHIR.repositoryType): value.value\ndefine function ToString(value FHIR.LocationStatus): value.value\ndefine function ToString(value FHIR.FHIRSubstanceStatus): value.value\ndefine function ToString(value FHIR.UnknownContentCode): value.value\ndefine function ToString(value FHIR.NoteType): value.value\ndefine function ToString(value FHIR.TestReportStatus): value.value\ndefine function ToString(value FHIR.HTTPVerb): value.value\ndefine function ToString(value FHIR.CodeSystemContentMode): value.value\ndefine function ToString(value FHIR.EpisodeOfCareStatus): value.value\ndefine function ToString(value FHIR.RemittanceOutcome): value.value\ndefine function ToString(value FHIR.FHIRDeviceStatus): value.value\ndefine function ToString(value FHIR.ContactPointSystem): value.value\ndefine function ToString(value FHIR.SlotStatus): value.value\ndefine function ToString(value FHIR.PropertyType): value.value\ndefine function ToString(value FHIR.markdown): value.value\ndefine function ToString(value FHIR.TypeDerivationRule): value.value\ndefine function ToString(value FHIR.MedicationStatementStatus): value.value\ndefine function ToString(value FHIR.GuidanceResponseStatus): value.value\ndefine function ToString(value FHIR.QuantityComparator): value.value\ndefine function ToString(value FHIR.RelatedArtifactType): value.value\ndefine function ToString(value FHIR.oid): value.value\ndefine function ToString(value FHIR.MeasureReportType): value.value\ndefine function ToString(value FHIR.ActionPrecheckBehavior): value.value\ndefine function ToString(value FHIR.SampledDataDataType): value.value\ndefine function ToString(value FHIR.MedicationStatementTaken): value.value\ndefine function ToString(value FHIR.CompartmentType): value.value\ndefine function ToString(value FHIR.CompositionAttestationMode): value.value\ndefine function ToString(value FHIR.DeviceMetricCalibrationState): value.value\ndefine function ToString(value FHIR.GroupType): value.value\ndefine function ToString(value FHIR.TypeRestfulInteraction): value.value\ndefine function ToString(value FHIR.CodeSystemHierarchyMeaning): value.value\ndefine function ToString(value FHIR.VisionBase): value.value\ndefine function ToString(value FHIR.BundleType): value.value\ndefine function ToString(value FHIR.SystemVersionProcessingMode): value.value\n</code></pre>\r\n                    \r\n                    \r\n                </td>\r\n            </tr>\r\n        \r\n    </table>\r\n</div>"
        },
        "version": "3.0.0",
        "name": "FHIRHelpers",
        "status": "active",
        "experimental": true,
        "type": {
          "coding": [
            {
              "system": "http://hl7.org/fhir/codesystem-library-type.html",
              "code": "logic-library"
            }
          ]
        },
        "content": [
          {
            "contentType": "application/elm+xml",
            "data": ""
          },
          {
            "contentType": "text/cql",
            "data": ""
          }
        ]
      },
      "request": {
        "method": "PUT",
        "url": "Library/library-FHIRHelpers-3.0.0"
      }
    },
    {
      "resource": {
        "resourceType": "ValueSet",
        "id": "2.16.840.1.113883.3.464.1003.101.12.1025",
        "url": "http://cts.nlm.nih.gov/fhir/ValueSet/2.16.840.1.113883.3.464.1003.101.12.1025",
        "identifier": [
          {
            "system": "urn:ietf:rfc:3986",
            "value": "2.16.840.1.113883.3.464.1003.101.12.1025"
          }
        ],
        "version": "20170504",
        "name": "PreventiveCareServices-EstablishedOfficeVisit,18andUp",
        "title": "Preventive Care Services - Established Office Visit, 18 and Up",
        "status": "active",
        "publisher": "NLM",
        "compose": {
          "include": [
            {
              "system": "http://www.ama-assn.org/go/cpt",
              "version": "2018",
              "concept": [
                {
                  "code": "99395",
                  "display": "Periodic comprehensive preventive medicine reevaluation and management of an individual including an age and gender appropriate history, examination, counseling/anticipatory guidance/risk factor reduction interventions, and the ordering of laboratory/diagnostic procedures, established patient; 18-39 years"
                },
                {
                  "code": "99396",
                  "display": "Periodic comprehensive preventive medicine reevaluation and management of an individual including an age and gender appropriate history, examination, counseling/anticipatory guidance/risk factor reduction interventions, and the ordering of laboratory/diagnostic procedures, established patient; 40-64 years"
                },
                {
                  "code": "99397",
                  "display": "Periodic comprehensive preventive medicine reevaluation and management of an individual including an age and gender appropriate history, examination, counseling/anticipatory guidance/risk factor reduction interventions, and the ordering of laboratory/diagnostic procedures, established patient; 65 years and older"
                }
              ]
            }
          ]
        }
      },
      "request": {
        "method": "PUT",
        "url": "ValueSet/2.16.840.1.113883.3.464.1003.101.12.1025"
      }
    },
    {
      "resource": {
        "resourceType": "ValueSet",
        "id": "2.16.840.1.113762.1.4.1056.50",
        "url": "http://cts.nlm.nih.gov/fhir/ValueSet/2.16.840.1.113762.1.4.1056.50",
        "identifier": [
          {
            "system": "urn:ietf:rfc:3986",
            "value": "2.16.840.1.113762.1.4.1056.50"
          }
        ],
        "version": "20180309",
        "name": "HumanImmunodeficiencyVirus(HIV)LaboratoryTestCodes(AbandAg)",
        "title": "Human Immunodeficiency Virus (HIV) Laboratory Test Codes (Ab and Ag)",
        "status": "active",
        "publisher": "NLM",
        "compose": {
          "include": [
            {
              "system": "http://loinc.org",
              "version": "2.64",
              "concept": [
                {
                  "code": "10901-7",
                  "display": "HIV 2 gp125 Ab [Presence] in Serum by Immunoblot"
                },
                {
                  "code": "10902-5",
                  "display": "HIV 2 gp36 Ab [Presence] in Serum by Immunoblot"
                },
                {
                  "code": "11078-3",
                  "display": "HIV 2 gp80 Ab [Presence] in Serum by Immunoblot"
                },
                {
                  "code": "11079-1",
                  "display": "HIV 2 p26 Ab [Presence] in Serum by Immunoblot"
                },
                {
                  "code": "11080-9",
                  "display": "HIV 2 p53 Ab [Presence] in Serum by Immunoblot"
                },
                {
                  "code": "11081-7",
                  "display": "HIV 2 p56 Ab [Presence] in Serum by Immunoblot"
                },
                {
                  "code": "11082-5",
                  "display": "HIV 2 p68 Ab [Presence] in Serum by Immunoblot"
                },
                {
                  "code": "12855-3",
                  "display": "HIV 1 p23 Ab [Presence] in Serum by Immunoblot"
                },
                {
                  "code": "12856-1",
                  "display": "HIV 1 p65 Ab [Presence] in Serum by Immunoblot"
                },
                {
                  "code": "12857-9",
                  "display": "HIV 1 p28 Ab [Presence] in Serum by Immunoblot"
                },
                {
                  "code": "12858-7",
                  "display": "HIV 1 p32 Ab [Presence] in Serum by Immunoblot"
                },
                {
                  "code": "12859-5",
                  "display": "HIV 1 p18 Ab [Presence] in Serum by Immunoblot"
                },
                {
                  "code": "12870-2",
                  "display": "HIV 1 gp34 Ab [Presence] in Serum by Immunoblot"
                },
                {
                  "code": "12871-0",
                  "display": "HIV 1 p26 Ab [Presence] in Serum by Immunoblot"
                },
                {
                  "code": "12872-8",
                  "display": "HIV 1 p15 Ab [Presence] in Serum by Immunoblot"
                },
                {
                  "code": "12875-1",
                  "display": "HIV 1 p64 Ab [Presence] in Serum by Immunoblot"
                },
                {
                  "code": "12876-9",
                  "display": "HIV 1 p53 Ab [Presence] in Serum by Immunoblot"
                },
                {
                  "code": "12893-4",
                  "display": "HIV 1 gp105 Ab [Presence] in Serum by Immunoblot"
                },
                {
                  "code": "12894-2",
                  "display": "HIV 1 p68 Ab [Presence] in Serum by Immunoblot"
                },
                {
                  "code": "12895-9",
                  "display": "HIV 1 p58 Ab [Presence] in Serum by Immunoblot"
                },
                {
                  "code": "13499-9",
                  "display": "HIV 1 Ab band pattern [Interpretation] in Serum by Immunoblot"
                },
                {
                  "code": "13920-4",
                  "display": "HIV 2 p41 Ab [Presence] in Serum by Immunoblot"
                },
                {
                  "code": "14092-1",
                  "display": "HIV 1 Ab [Presence] in Serum by Immunofluorescence"
                },
                {
                  "code": "14126-7",
                  "display": "HIV 1 gp120+gp160 Ab [Presence] in Serum by Immunoblot"
                },
                {
                  "code": "16132-3",
                  "display": "HIV 1 p15+p18 Ab [Presence] in Serum by Immunoblot"
                },
                {
                  "code": "16974-8",
                  "display": "HIV 1 Ab [Presence] in Cerebral spinal fluid"
                },
                {
                  "code": "16975-5",
                  "display": "HIV 1 IgG Ab [Presence] in Serum"
                },
                {
                  "code": "16976-3",
                  "display": "HIV 1 Ag [Units/volume] in Serum"
                },
                {
                  "code": "16977-1",
                  "display": "HIV 1 Ag [Presence] in Cerebral spinal fluid"
                },
                {
                  "code": "16978-9",
                  "display": "HIV 1 p24 Ab [Units/volume] in Serum"
                },
                {
                  "code": "16979-7",
                  "display": "HIV 1 p24 Ag [Units/volume] in Cerebral spinal fluid"
                },
                {
                  "code": "18396-2",
                  "display": "HIV 1 p24 Ag [Presence] in Serum or Plasma by Immunoassay"
                },
                {
                  "code": "19110-6",
                  "display": "HIV 1 gp41+gp43 Ab [Presence] in Serum by Immunoblot"
                },
                {
                  "code": "21007-0",
                  "display": "HIV 1 Ab [Presence] in Serum from Donor"
                },
                {
                  "code": "21331-4",
                  "display": "HIV 1 p24 Ab [Titer] in Serum by Immunoblot"
                },
                {
                  "code": "21332-2",
                  "display": "HIV 1 p41 Ab [Titer] in Serum by Immunoblot"
                },
                {
                  "code": "21334-8",
                  "display": "HIV 2 gp105 Ab [Presence] in Serum by Immunoblot"
                },
                {
                  "code": "21335-5",
                  "display": "HIV 2 gp120 Ab [Presence] in Serum by Immunoblot"
                },
                {
                  "code": "21336-3",
                  "display": "HIV 2 gp15 Ab [Presence] in Serum by Immunoblot"
                },
                {
                  "code": "21337-1",
                  "display": "HIV 2 gp34 Ab [Presence] in Serum by Immunoblot"
                },
                {
                  "code": "21338-9",
                  "display": "HIV 2 p31 Ab [Presence] in Serum by Immunoblot"
                },
                {
                  "code": "21339-7",
                  "display": "HIV 2 p55 Ab [Presence] in Serum by Immunoblot"
                },
                {
                  "code": "21340-5",
                  "display": "HIV 2 p58 Ab [Presence] in Serum by Immunoblot"
                },
                {
                  "code": "22356-0",
                  "display": "HIV 1 Ab [Units/volume] in Serum"
                },
                {
                  "code": "22357-8",
                  "display": "HIV 1+2 Ab [Units/volume] in Serum"
                },
                {
                  "code": "22358-6",
                  "display": "HIV 2 Ab [Units/volume] in Serum"
                },
                {
                  "code": "24012-7",
                  "display": "HIV 1 Ag [Presence] in Serum"
                },
                {
                  "code": "28004-0",
                  "display": "HIV 1 IgG Ab [Presence] in Cerebral spinal fluid by Immunoblot"
                },
                {
                  "code": "28052-9",
                  "display": "HIV 1 Ab.IgG band pattern [Interpretation] in Cerebral spinal fluid by Immunoblot"
                },
                {
                  "code": "29327-4",
                  "display": "HIV 1 Ab [Presence] in Body fluid"
                },
                {
                  "code": "29893-5",
                  "display": "HIV 1 Ab [Presence] in Serum or Plasma by Immunoassay"
                },
                {
                  "code": "30361-0",
                  "display": "HIV 2 Ab [Presence] in Serum or Plasma by Immunoassay"
                },
                {
                  "code": "31072-2",
                  "display": "HIV 1 p41 Ab [Presence] in Serum by Immunoblot"
                },
                {
                  "code": "31073-0",
                  "display": "HIV 2 Ab band pattern [Interpretation] in Serum by Immunoblot"
                },
                {
                  "code": "31201-7",
                  "display": "HIV 1+2 Ab [Presence] in Serum or Plasma by Immunoassay"
                },
                {
                  "code": "31430-2",
                  "display": "HIV 1 IgG Ab [Presence] in Cerebral spinal fluid"
                },
                {
                  "code": "32571-2",
                  "display": "HIV 1 Ab [Presence] in Urine by Immunoblot"
                },
                {
                  "code": "32602-5",
                  "display": "HIV 1+2 Ab [Presence] in Cerebral spinal fluid"
                },
                {
                  "code": "32827-8",
                  "display": "HIV 1 p17+p18 Ab [Presence] in Serum by Immunoblot"
                },
                {
                  "code": "32842-7",
                  "display": "HIV 1 p17+p18 Ab [Presence] in Serum"
                },
                {
                  "code": "33508-3",
                  "display": "HIV 1 p65+p66 Ab [Presence] in Serum by Immunoblot"
                },
                {
                  "code": "33660-2",
                  "display": "HIV 1 p24 Ag [Presence] in Serum or Plasma by Neutralization test"
                },
                {
                  "code": "33806-1",
                  "display": "HIV 2 IgG Ab [Presence] in Serum by Immunoblot"
                },
                {
                  "code": "33807-9",
                  "display": "HIV 2 IgG Ab [Presence] in Serum"
                },
                {
                  "code": "33866-5",
                  "display": "HIV 1 Ab [Presence] in Capillary blood by Immunoassay"
                },
                {
                  "code": "34591-8",
                  "display": "HIV 1 Ab [Presence] in Body fluid by Immunoassay"
                },
                {
                  "code": "34592-6",
                  "display": "HIV 1 Ab [Presence] in Body fluid by Immunoblot"
                },
                {
                  "code": "35437-3",
                  "display": "HIV 1 Ab [Presence] in Saliva (oral fluid) by Immunoassay"
                },
                {
                  "code": "35438-1",
                  "display": "HIV 1 Ab [Units/volume] in Saliva (oral fluid) by Immunoassay"
                },
                {
                  "code": "35439-9",
                  "display": "HIV 1 Ab [Presence] in Saliva (oral fluid) by Immunoblot"
                },
                {
                  "code": "35440-7",
                  "display": "HIV 1 gp160 Ab [Presence] in Saliva (oral fluid) by Immunoblot"
                },
                {
                  "code": "35441-5",
                  "display": "HIV 1 gp120 Ab [Presence] in Saliva (oral fluid) by Immunoblot"
                },
                {
                  "code": "35442-3",
                  "display": "HIV 1 p66 Ab [Presence] in Saliva (oral fluid) by Immunoblot"
                },
                {
                  "code": "35443-1",
                  "display": "HIV 1 p65 Ab [Presence] in Saliva (oral fluid) by Immunoblot"
                },
                {
                  "code": "35444-9",
                  "display": "HIV 1 p55 Ab [Presence] in Saliva (oral fluid) by Immunoblot"
                },
                {
                  "code": "35445-6",
                  "display": "HIV 1 p51 Ab [Presence] in Saliva (oral fluid) by Immunoblot"
                },
                {
                  "code": "35446-4",
                  "display": "HIV 1 gp41 Ab [Presence] in Saliva (oral fluid) by Immunoblot"
                },
                {
                  "code": "35447-2",
                  "display": "HIV 1 p31 Ab [Presence] in Saliva (oral fluid) by Immunoblot"
                },
                {
                  "code": "35448-0",
                  "display": "HIV 1 p24 Ab [Presence] in Saliva (oral fluid) by Immunoblot"
                },
                {
                  "code": "35449-8",
                  "display": "HIV 1 p17 Ab [Presence] in Saliva (oral fluid) by Immunoblot"
                },
                {
                  "code": "35450-6",
                  "display": "HIV 1 p18 Ab [Presence] in Saliva (oral fluid) by Immunoblot"
                },
                {
                  "code": "35452-2",
                  "display": "HIV 1 gp40 Ab [Presence] in Serum by Immunoblot"
                },
                {
                  "code": "35564-4",
                  "display": "HIV 1 p31+p32 Ab [Presence] in Serum by Immunoblot"
                },
                {
                  "code": "35565-1",
                  "display": "HIV 1 p40 Ab [Presence] in Serum by Immunoblot"
                },
                {
                  "code": "40437-6",
                  "display": "HIV 1 p24 Ab [Presence] in Serum or Plasma by Immunoassay"
                },
                {
                  "code": "40438-4",
                  "display": "HIV 1 gp41 Ab [Presence] in Serum or Plasma by Immunoassay"
                },
                {
                  "code": "40439-2",
                  "display": "HIV 1 gp120+gp160 Ab [Presence] in Serum or Plasma by Immunoassay"
                },
                {
                  "code": "40732-0",
                  "display": "HIV 1 IgG Ab [Presence] in Serum by Immunoblot"
                },
                {
                  "code": "40733-8",
                  "display": "HIV 1+2 IgG Ab [Presence] in Serum or Plasma by Immunoassay"
                },
                {
                  "code": "41143-9",
                  "display": "HIV 1 Ab [Units/volume] in Saliva (oral fluid)"
                },
                {
                  "code": "41144-7",
                  "display": "HIV 1 Ab [Presence] in Saliva (oral fluid)"
                },
                {
                  "code": "41145-4",
                  "display": "HIV 1 Ab [Presence] in Capillary blood"
                },
                {
                  "code": "41290-8",
                  "display": "HIV 1+2 IgM Ab [Units/volume] in Serum or Plasma by Immunoassay"
                },
                {
                  "code": "42339-2",
                  "display": "HIV 1 p24 Ag [Mass/volume] in Serum or Plasma by Immunoassay"
                },
                {
                  "code": "42600-7",
                  "display": "HIV 1+2 Ab [Presence] in Unspecified specimen by Immunoassay"
                },
                {
                  "code": "42627-0",
                  "display": "HIV 1 Ab [Presence] in Cerebral spinal fluid by Immunofluorescence"
                },
                {
                  "code": "42768-2",
                  "display": "HIV 1 and 2 Ab [Interpretation] in Serum Narrative"
                },
                {
                  "code": "43008-2",
                  "display": "HIV 1+2 IgM Ab [Units/volume] in Serum"
                },
                {
                  "code": "43009-0",
                  "display": "HIV 1+2 IgG Ab [Presence] in Serum"
                },
                {
                  "code": "43010-8",
                  "display": "HIV 1+2 Ab [Presence] in Unspecified specimen"
                },
                {
                  "code": "43011-6",
                  "display": "HIV 1 p24 Ab [Presence] in Serum"
                },
                {
                  "code": "43012-4",
                  "display": "HIV 1 gp41 Ab [Presence] in Serum"
                },
                {
                  "code": "43013-2",
                  "display": "HIV 1 gp120+gp160 Ab [Presence] in Serum"
                },
                {
                  "code": "43185-8",
                  "display": "HIV 1 and 2 Ab band pattern [Interpretation] in Serum by Immunoblot"
                },
                {
                  "code": "43599-0",
                  "display": "HIV 1 Ab [Units/volume] in Serum by Immunofluorescence"
                },
                {
                  "code": "44531-2",
                  "display": "HIV 1 Ag [Presence] in Serum from Donor"
                },
                {
                  "code": "44532-0",
                  "display": "HIV 1 gp120 Ab [Presence] in Serum"
                },
                {
                  "code": "44533-8",
                  "display": "HIV 1+2 Ab [Presence] in Serum from Donor"
                },
                {
                  "code": "44607-0",
                  "display": "HIV 1 [Interpretation] in Serum or Plasma by Immunoassay"
                },
                {
                  "code": "44872-0",
                  "display": "HIV 1 p24 Ag [Presence] in Serum or Plasma from Donor by Immunoassay"
                },
                {
                  "code": "44873-8",
                  "display": "HIV 1+2 Ab [Presence] in Serum by Immunoblot"
                },
                {
                  "code": "45212-8",
                  "display": "HIV 2 p31+p34 Ab [Presence] in Serum by Immunoblot"
                },
                {
                  "code": "47029-4",
                  "display": "HIV 2 Ab [Presence] in Cerebral spinal fluid by Immunoblot"
                },
                {
                  "code": "48345-3",
                  "display": "HIV 1+O+2 Ab [Presence] in Serum or Plasma"
                },
                {
                  "code": "48346-1",
                  "display": "HIV 1+O+2 Ab [Units/volume] in Serum or Plasma"
                },
                {
                  "code": "49483-1",
                  "display": "HIV 1 [Interpretation] in Serum or Plasma by Immunoassay Narrative"
                },
                {
                  "code": "49580-4",
                  "display": "HIV 1+2 Ab [Presence] in Unspecified specimen by Rapid immunoassay"
                },
                {
                  "code": "49718-0",
                  "display": "HIV 1 p24 Ag [Presence] in Cerebral spinal fluid"
                },
                {
                  "code": "49905-3",
                  "display": "HIV 1 Ab [Presence] in Unspecified specimen by Rapid immunoassay"
                },
                {
                  "code": "51786-2",
                  "display": "HIV 2 Ab Signal/Cutoff in Serum or Plasma by Immunoassay"
                },
                {
                  "code": "5220-9",
                  "display": "HIV 1 Ab [Units/volume] in Serum or Plasma by Immunoassay"
                },
                {
                  "code": "5221-7",
                  "display": "HIV 1 Ab [Presence] in Serum or Plasma by Immunoblot"
                },
                {
                  "code": "5222-5",
                  "display": "HIV 1 Ag [Presence] in Serum or Plasma by Immunoassay"
                },
                {
                  "code": "5223-3",
                  "display": "HIV 1+2 Ab [Units/volume] in Serum or Plasma by Immunoassay"
                },
                {
                  "code": "5224-1",
                  "display": "HIV 2 Ab [Units/volume] in Serum or Plasma by Immunoassay"
                },
                {
                  "code": "5225-8",
                  "display": "HIV 2 Ab [Presence] in Serum by Immunoblot"
                },
                {
                  "code": "53379-4",
                  "display": "HIV 1 Ab [Presence] in Unspecified specimen"
                },
                {
                  "code": "53601-1",
                  "display": "HIV 1 p24 Ag [Units/volume] in Serum or Plasma by Immunoassay"
                },
                {
                  "code": "54086-4",
                  "display": "HIV 1+2 IgG Ab [Presence] in DBS"
                },
                {
                  "code": "56888-1",
                  "display": "HIV 1+2 Ab+HIV1 p24 Ag [Presence] in Serum or Plasma by Immunoassay"
                },
                {
                  "code": "57974-8",
                  "display": "HIV 1 Ab [Presence] in Cerebral spinal fluid by Immunoblot"
                },
                {
                  "code": "57975-5",
                  "display": "HIV 1+O+2 Ab [Presence] in Body fluid"
                },
                {
                  "code": "57976-3",
                  "display": "HIV 2 gp140 Ab [Presence] in Serum by Immunoblot"
                },
                {
                  "code": "57977-1",
                  "display": "HIV 2 p16 Ab [Presence] in Serum by Immunoblot"
                },
                {
                  "code": "57978-9",
                  "display": "HIV 2 p34 Ab [Presence] in Serum by Immunoblot"
                },
                {
                  "code": "58900-2",
                  "display": "HIV 1+2 Ab+HIV1 p24 Ag [Units/volume] in Serum or Plasma by Immunoassay"
                },
                {
                  "code": "62456-9",
                  "display": "HIV 2 p15 Ab [Presence] in Serum by Immunoblot"
                },
                {
                  "code": "6429-5",
                  "display": "HIV identified in Blood by Organism specific culture"
                },
                {
                  "code": "6430-3",
                  "display": "HIV identified in Semen by Organism specific culture"
                },
                {
                  "code": "6431-1",
                  "display": "HIV identified in Unspecified specimen by Organism specific culture"
                },
                {
                  "code": "68961-2",
                  "display": "HIV 1 Ab [Presence] in Serum, Plasma or Blood by Rapid immunoassay"
                },
                {
                  "code": "69668-2",
                  "display": "HIV 1 and 2 Ab [Identifier] in Serum or Plasma by Rapid immunoassay"
                },
                {
                  "code": "73905-2",
                  "display": "HIV 1+2 IgG Ab [Presence] in Serum or Plasma by Rapid immunoassay"
                },
                {
                  "code": "73906-0",
                  "display": "HIV 1+2 IgG Ab [Presence] in Blood by Rapid immunoassay"
                },
                {
                  "code": "7917-8",
                  "display": "HIV 1 Ab [Presence] in Serum"
                },
                {
                  "code": "7918-6",
                  "display": "HIV 1+2 Ab [Presence] in Serum"
                },
                {
                  "code": "7919-4",
                  "display": "HIV 2 Ab [Presence] in Serum"
                },
                {
                  "code": "9660-2",
                  "display": "HIV 1 gp160 Ab [Presence] in Serum by Immunoblot"
                },
                {
                  "code": "9661-0",
                  "display": "HIV 1 gp120 Ab [Presence] in Serum by Immunoblot"
                },
                {
                  "code": "9662-8",
                  "display": "HIV 1 gp41 Ab [Presence] in Serum by Immunoblot"
                },
                {
                  "code": "9663-6",
                  "display": "HIV 1 p17 Ab [Presence] in Serum by Immunoblot"
                },
                {
                  "code": "9664-4",
                  "display": "HIV 1 p24 Ab [Presence] in Serum by Immunoblot"
                },
                {
                  "code": "9665-1",
                  "display": "HIV 1 p24 Ag [Units/volume] in Serum"
                },
                {
                  "code": "9666-9",
                  "display": "HIV 1 p31 Ab [Presence] in Serum by Immunoblot"
                },
                {
                  "code": "9667-7",
                  "display": "HIV 1 p51 Ab [Presence] in Serum by Immunoblot"
                },
                {
                  "code": "9668-5",
                  "display": "HIV 1 p55 Ab [Presence] in Serum by Immunoblot"
                },
                {
                  "code": "9669-3",
                  "display": "HIV 1 p66 Ab [Presence] in Serum by Immunoblot"
                },
                {
                  "code": "9821-0",
                  "display": "HIV 1 p24 Ag [Presence] in Serum"
                }
              ]
            }
          ]
        }
      },
      "request": {
        "method": "PUT",
        "url": "ValueSet/2.16.840.1.113762.1.4.1056.50"
      }
    },
    {
      "resource": {
        "resourceType": "ValueSet",
        "id": "2.16.840.1.113883.3.464.1003.101.12.1001",
        "url": "http://cts.nlm.nih.gov/fhir/ValueSet/2.16.840.1.113883.3.464.1003.101.12.1001",
        "identifier": [
          {
            "system": "urn:ietf:rfc:3986",
            "value": "2.16.840.1.113883.3.464.1003.101.12.1001"
          }
        ],
        "version": "20180310",
        "name": "OfficeVisit",
        "title": "Office Visit",
        "status": "active",
        "publisher": "NLM",
        "compose": {
          "include": [
            {
              "system": "http://www.ama-assn.org/go/cpt",
              "version": "2018",
              "concept": [
                {
                  "code": "99201",
                  "display": "Office or other outpatient visit for the evaluation and management of a new patient, which requires these 3 key components: A problem focused history; A problem focused examination; Straightforward medical decision making. Counseling and/or coordination of care with other physicians, other qualified health care professionals, or agencies are provided consistent with the nature of the problem(s) and the patient's and/or family's needs. Usually, the presenting problem(s) are self limited or minor. Typically, 10 minutes are spent face-to-face with the patient and/or family."
                },
                {
                  "code": "99202",
                  "display": "Office or other outpatient visit for the evaluation and management of a new patient, which requires these 3 key components: An expanded problem focused history; An expanded problem focused examination; Straightforward medical decision making. Counseling and/or coordination of care with other physicians, other qualified health care professionals, or agencies are provided consistent with the nature of the problem(s) and the patient's and/or family's needs. Usually, the presenting problem(s) are of low to moderate severity. Typically, 20 minutes are spent face-to-face with the patient and/or family."
                },
                {
                  "code": "99203",
                  "display": "Office or other outpatient visit for the evaluation and management of a new patient, which requires these 3 key components: A detailed history; A detailed examination; Medical decision making of low complexity. Counseling and/or coordination of care with other physicians, other qualified health care professionals, or agencies are provided consistent with the nature of the problem(s) and the patient's and/or family's needs. Usually, the presenting problem(s) are of moderate severity. Typically, 30 minutes are spent face-to-face with the patient and/or family."
                },
                {
                  "code": "99204",
                  "display": "Office or other outpatient visit for the evaluation and management of a new patient, which requires these 3 key components: A comprehensive history; A comprehensive examination; Medical decision making of moderate complexity. Counseling and/or coordination of care with other physicians, other qualified health care professionals, or agencies are provided consistent with the nature of the problem(s) and the patient's and/or family's needs. Usually, the presenting problem(s) are of moderate to high severity. Typically, 45 minutes are spent face-to-face with the patient and/or family."
                },
                {
                  "code": "99205",
                  "display": "Office or other outpatient visit for the evaluation and management of a new patient, which requires these 3 key components: A comprehensive history; A comprehensive examination; Medical decision making of high complexity. Counseling and/or coordination of care with other physicians, other qualified health care professionals, or agencies are provided consistent with the nature of the problem(s) and the patient's and/or family's needs. Usually, the presenting problem(s) are of moderate to high severity. Typically, 60 minutes are spent face-to-face with the patient and/or family."
                },
                {
                  "code": "99212",
                  "display": "Office or other outpatient visit for the evaluation and management of an established patient, which requires at least 2 of these 3 key components: A problem focused history; A problem focused examination; Straightforward medical decision making. Counseling and/or coordination of care with other physicians, other qualified health care professionals, or agencies are provided consistent with the nature of the problem(s) and the patient's and/or family's needs. Usually, the presenting problem(s) are self limited or minor. Typically, 10 minutes are spent face-to-face with the patient and/or family."
                },
                {
                  "code": "99213",
                  "display": "Office or other outpatient visit for the evaluation and management of an established patient, which requires at least 2 of these 3 key components: An expanded problem focused history; An expanded problem focused examination; Medical decision making of low complexity. Counseling and coordination of care with other physicians, other qualified health care professionals, or agencies are provided consistent with the nature of the problem(s) and the patient's and/or family's needs. Usually, the presenting problem(s) are of low to moderate severity. Typically, 15 minutes are spent face-to-face with the patient and/or family."
                },
                {
                  "code": "99214",
                  "display": "Office or other outpatient visit for the evaluation and management of an established patient, which requires at least 2 of these 3 key components: A detailed history; A detailed examination; Medical decision making of moderate complexity. Counseling and/or coordination of care with other physicians, other qualified health care professionals, or agencies are provided consistent with the nature of the problem(s) and the patient's and/or family's needs. Usually, the presenting problem(s) are of moderate to high severity. Typically, 25 minutes are spent face-to-face with the patient and/or family."
                },
                {
                  "code": "99215",
                  "display": "Office or other outpatient visit for the evaluation and management of an established patient, which requires at least 2 of these 3 key components: A comprehensive history; A comprehensive examination; Medical decision making of high complexity. Counseling and/or coordination of care with other physicians, other qualified health care professionals, or agencies are provided consistent with the nature of the problem(s) and the patient's and/or family's needs. Usually, the presenting problem(s) are of moderate to high severity. Typically, 40 minutes are spent face-to-face with the patient and/or family."
                }
              ]
            },
            {
              "system": "http://snomed.info/sct",
              "version": "2018-03",
              "concept": [
                {
                  "code": "185463005",
                  "display": "Visit out of hours (procedure)"
                },
                {
                  "code": "185464004",
                  "display": "Out of hours visit - not night visit (procedure)"
                },
                {
                  "code": "185465003",
                  "display": "Weekend visit (procedure)"
                },
                {
                  "code": "30346009",
                  "display": "Evaluation and management of established outpatient in office or other outpatient facility (procedure)"
                },
                {
                  "code": "3391000175108",
                  "display": "Office visit for pediatric care and assessment (procedure)"
                },
                {
                  "code": "37894004",
                  "display": "Evaluation and management of new outpatient in office or other outpatient facility (procedure)"
                },
                {
                  "code": "439740005",
                  "display": "Postoperative follow-up visit (procedure)"
                }
              ]
            }
          ]
        }
      },
      "request": {
        "method": "PUT",
        "url": "ValueSet/2.16.840.1.113883.3.464.1003.101.12.1001"
      }
    },
    {
      "resource": {
        "resourceType": "ValueSet",
        "id": "2.16.840.1.113883.3.464.1003.101.12.1023",
        "url": "http://cts.nlm.nih.gov/fhir/ValueSet/2.16.840.1.113883.3.464.1003.101.12.1023",
        "identifier": [
          {
            "system": "urn:ietf:rfc:3986",
            "value": "2.16.840.1.113883.3.464.1003.101.12.1023"
          }
        ],
        "version": "20170504",
        "name": "PreventiveCareServices-InitialOfficeVisit,18andUp",
        "title": "Preventive Care Services-Initial Office Visit, 18 and Up",
        "status": "active",
        "publisher": "NLM",
        "compose": {
          "include": [
            {
              "system": "http://www.ama-assn.org/go/cpt",
              "version": "2018",
              "concept": [
                {
                  "code": "99385",
                  "display": "Initial comprehensive preventive medicine evaluation and management of an individual including an age and gender appropriate history, examination, counseling/anticipatory guidance/risk factor reduction interventions, and the ordering of laboratory/diagnostic procedures, new patient; 18-39 years"
                },
                {
                  "code": "99386",
                  "display": "Initial comprehensive preventive medicine evaluation and management of an individual including an age and gender appropriate history, examination, counseling/anticipatory guidance/risk factor reduction interventions, and the ordering of laboratory/diagnostic procedures, new patient; 40-64 years"
                },
                {
                  "code": "99387",
                  "display": "Initial comprehensive preventive medicine evaluation and management of an individual including an age and gender appropriate history, examination, counseling/anticipatory guidance/risk factor reduction interventions, and the ordering of laboratory/diagnostic procedures, new patient; 65 years and older"
                }
              ]
            }
          ]
        }
      },
      "request": {
        "method": "PUT",
        "url": "ValueSet/2.16.840.1.113883.3.464.1003.101.12.1023"
      }
    },
    {
      "resource": {
        "resourceType": "ValueSet",
        "id": "2.16.840.1.113883.3.464.1003.101.12.1024",
        "url": "http://cts.nlm.nih.gov/fhir/ValueSet/2.16.840.1.113883.3.464.1003.101.12.1024",
        "identifier": [
          {
            "system": "urn:ietf:rfc:3986",
            "value": "2.16.840.1.113883.3.464.1003.101.12.1024"
          }
        ],
        "version": "20170504",
        "name": "PreventiveCare,EstablishedOfficeVisit,0to17",
        "title": "Preventive Care, Established Office Visit, 0 to 17",
        "status": "active",
        "publisher": "NLM",
        "compose": {
          "include": [
            {
              "system": "http://www.ama-assn.org/go/cpt",
              "version": "2018",
              "concept": [
                {
                  "code": "99391",
                  "display": "Periodic comprehensive preventive medicine reevaluation and management of an individual including an age and gender appropriate history, examination, counseling/anticipatory guidance/risk factor reduction interventions, and the ordering of laboratory/diagnostic procedures, established patient; infant (age younger than 1 year)"
                },
                {
                  "code": "99392",
                  "display": "Periodic comprehensive preventive medicine reevaluation and management of an individual including an age and gender appropriate history, examination, counseling/anticipatory guidance/risk factor reduction interventions, and the ordering of laboratory/diagnostic procedures, established patient; early childhood (age 1 through 4 years)"
                },
                {
                  "code": "99393",
                  "display": "Periodic comprehensive preventive medicine reevaluation and management of an individual including an age and gender appropriate history, examination, counseling/anticipatory guidance/risk factor reduction interventions, and the ordering of laboratory/diagnostic procedures, established patient; late childhood (age 5 through 11 years)"
                },
                {
                  "code": "99394",
                  "display": "Periodic comprehensive preventive medicine reevaluation and management of an individual including an age and gender appropriate history, examination, counseling/anticipatory guidance/risk factor reduction interventions, and the ordering of laboratory/diagnostic procedures, established patient; adolescent (age 12 through 17 years)"
                }
              ]
            }
          ]
        }
      },
      "request": {
        "method": "PUT",
        "url": "ValueSet/2.16.840.1.113883.3.464.1003.101.12.1024"
      }
    },
    {
      "resource": {
        "resourceType": "MeasureReport",
        "id": "measurereport-denom-EXM349-FHIR3",
        "contained": [
          {
            "resourceType": "Bundle",
            "id": "85917cdb-7f1d-48a8-beb4-a556e0ccc53b",
            "type": "collection",
            "entry": [
              {
                "fullUrl": "Patient/denom-EXM349-FHIR3/_history/1",
                "resource": {
                  "resourceType": "Patient",
                  "id": "denom-EXM349-FHIR3",
                  "meta": {
                    "versionId": "1",
                    "lastUpdated": "2019-12-18T11:39:28.423-07:00",
                    "profile": [
                      "http://hl7.org/fhir/us/core/StructureDefinition/us-core-patient"
                    ]
                  },
                  "text": {
                    "status": "generated",
                    "div": "<div xmlns=\"http://www.w3.org/1999/xhtml\"><div class=\"hapiHeaderText\">Rick <b>JONES </b></div><table class=\"hapiPropertyTable\"><tbody><tr><td>Identifier</td><td>9999999910</td></tr><tr><td>Date of birth</td><td><span>05 November 1955</span></td></tr></tbody></table></div>"
                  },
                  "extension": [
                    {
                      "url": "http://hl7.org/fhir/us/core/StructureDefinition/us-core-race",
                      "extension": [
                        {
                          "url": "ombCategory",
                          "valueCoding": {
                            "system": "urn:oid:2.16.840.1.113883.6.238",
                            "code": "2054-5",
                            "display": "Black or African American"
                          }
                        }
                      ]
                    },
                    {
                      "url": "http://hl7.org/fhir/us/core/StructureDefinition/us-core-ethnicity",
                      "extension": [
                        {
                          "url": "ombCategory",
                          "valueCoding": {
                            "system": "urn:oid:2.16.840.1.113883.6.238",
                            "code": "2135-2",
                            "display": "Hispanic or Latino"
                          }
                        }
                      ]
                    }
                  ],
                  "identifier": [
                    {
                      "use": "usual",
                      "type": {
                        "coding": [
                          {
                            "system": "http://terminology.hl7.org/CodeSystem/v2-0203",
                            "code": "MR",
                            "display": "Medical Record Number"
                          }
                        ]
                      },
                      "system": "http://hospital.smarthealthit.org",
                      "value": "9999999910"
                    }
                  ],
                  "name": [
                    {
                      "family": "Jones",
                      "given": [
                        "Rick"
                      ]
                    }
                  ],
                  "gender": "male",
                  "birthDate": "1955-11-05"
                }
              },
              {
                "fullUrl": "Encounter/denom-EXM349-FHIR3-2/_history/1",
                "resource": {
                  "resourceType": "Encounter",
                  "id": "denom-EXM349-FHIR3-2",
                  "meta": {
                    "versionId": "1",
                    "lastUpdated": "2019-12-18T11:39:28.423-07:00",
                    "profile": [
                      "http://hl7.org/fhir/us/core/StructureDefinition/us-core-encounter"
                    ]
                  },
                  "status": "finished",
                  "type": [
                    {
                      "coding": [
                        {
                          "system": "http://www.ama-assn.org/go/cpt",
                          "code": "99386",
                          "display": "Initial comprehensive preventive medicine evaluation and management of an individual including an age and gender appropriate history, examination, counseling/anticipatory guidance/risk factor reduction interventions, and the ordering of laboratory/diagnostic procedures, new patient; 40-64 years"
                        }
                      ]
                    }
                  ],
                  "subject": {
                    "reference": "Patient/denom-EXM349-FHIR3"
                  },
                  "period": {
                    "start": "2019-08-21T00:00:00-06:00",
                    "end": "2019-12-19T08:15:00-07:00"
                  }
                }
              },
              {
                "fullUrl": "96712794-8dff-4596-a1b9-413947e69f65",
                "resource": {
                  "resourceType": "List",
                  "id": "96712794-8dff-4596-a1b9-413947e69f65",
                  "title": "initial-population",
                  "entry": [
                    {
                      "item": {
                        "reference": "#Patient/denom-EXM349-FHIR3/_history/1"
                      }
                    },
                    {
                      "item": {
                        "reference": "#Encounter/denom-EXM349-FHIR3-2/_history/1"
                      }
                    }
                  ]
                }
              }
            ]
          }
        ],
        "status": "complete",
        "type": "individual",
        "measure": {
          "reference": "Measure/measure-EXM349-FHIR3-2.9.000"
        },
        "patient": {
          "reference": "Patient/denom-EXM349-FHIR3"
        },
        "period": {
          "start": "2019-01-01T00:00:00-07:00",
          "end": "2019-12-31T00:00:00-07:00"
        },
        "group": [
          {
            "identifier": {
              "value": "group-1"
            },
            "population": [
              {
                "identifier": {
                  "value": "initial-population-identifier"
                },
                "code": {
                  "coding": [
                    {
                      "system": "http://terminology.hl7.org/CodeSystem/measure-population",
                      "code": "initial-population",
                      "display": "Initial Population"
                    }
                  ]
                },
                "count": 1
              },
              {
                "identifier": {
                  "value": "numerator-identifier"
                },
                "code": {
                  "coding": [
                    {
                      "system": "http://terminology.hl7.org/CodeSystem/measure-population",
                      "code": "numerator",
                      "display": "Numerator"
                    }
                  ]
                },
                "count": 0
              },
              {
                "identifier": {
                  "value": "denominator-identifier"
                },
                "code": {
                  "coding": [
                    {
                      "system": "http://terminology.hl7.org/CodeSystem/measure-population",
                      "code": "denominator",
                      "display": "Denominator"
                    }
                  ]
                },
                "count": 1
              },
              {
                "identifier": {
                  "value": "denominator-exclusions-identifier"
                },
                "code": {
                  "coding": [
                    {
                      "system": "http://terminology.hl7.org/CodeSystem/measure-population",
                      "code": "denominator-exclusion",
                      "display": "Denominator Exclusion"
                    }
                  ]
                },
                "count": 0
              }
            ],
            "measureScore": 0.0
          }
        ],
        "evaluatedResources": {
          "reference": "#85917cdb-7f1d-48a8-beb4-a556e0ccc53b"
        }
      },
      "request": {
        "method": "PUT",
        "url": "MeasureReport/measurereport-denom-EXM349-FHIR3"
      }
    },
    {
      "resource": {
        "resourceType": "Encounter",
        "id": "numer-EXM349-FHIR3-2",
        "meta": {
          "profile": [
            "http://hl7.org/fhir/us/core/StructureDefinition/us-core-encounter"
          ]
        },
        "status": "finished",
        "type": [
          {
            "coding": [
              {
                "system": "http://www.ama-assn.org/go/cpt",
                "code": "99386",
                "display": "Initial comprehensive preventive medicine evaluation and management of an individual including an age and gender appropriate history, examination, counseling/anticipatory guidance/risk factor reduction interventions, and the ordering of laboratory/diagnostic procedures, new patient; 40-64 years"
              }
            ]
          }
        ],
        "subject": {
          "reference": "Patient/numer-EXM349-FHIR3"
        },
        "period": {
          "start": "2019-08-21T00:00:00-06:00",
          "end": "2019-12-19T08:15:00-07:00"
        }
      },
      "request": {
        "method": "PUT",
        "url": "Encounter/numer-EXM349-FHIR3-2"
      }
    },
    {
      "resource": {
        "resourceType": "ValueSet",
        "id": "2.16.840.1.113762.1.4.1056.54",
        "url": "http://cts.nlm.nih.gov/fhir/ValueSet/2.16.840.1.113762.1.4.1056.54",
        "identifier": [
          {
            "system": "urn:ietf:rfc:3986",
            "value": "2.16.840.1.113762.1.4.1056.54"
          }
        ],
        "version": "20180309",
        "name": "ConditionsDueToHumanImmunodeficiencyVirus(HIV)",
        "title": "Conditions Due To Human Immunodeficiency Virus (HIV)",
        "status": "active",
        "publisher": "NLM",
        "compose": {
          "include": [
            {
              "system": "http://hl7.org/fhir/sid/icd-10",
              "version": "2019",
              "concept": [
                {
                  "code": "B20",
                  "display": "Human immunodeficiency virus [HIV] disease"
                },
                {
                  "code": "B20-B20",
                  "display": "Human immunodeficiency virus [HIV] disease (B20)"
                },
                {
                  "code": "B97.35",
                  "display": "Human immunodeficiency virus, type 2 [HIV 2] as the cause of diseases classified elsewhere"
                },
                {
                  "code": "O98.7",
                  "display": "Human immunodeficiency virus [HIV] disease complicating pregnancy, childbirth and the puerperium"
                },
                {
                  "code": "O98.71",
                  "display": "Human immunodeficiency virus [HIV] disease complicating pregnancy"
                },
                {
                  "code": "O98.711",
                  "display": "Human immunodeficiency virus [HIV] disease complicating pregnancy, first trimester"
                },
                {
                  "code": "O98.712",
                  "display": "Human immunodeficiency virus [HIV] disease complicating pregnancy, second trimester"
                },
                {
                  "code": "O98.713",
                  "display": "Human immunodeficiency virus [HIV] disease complicating pregnancy, third trimester"
                },
                {
                  "code": "O98.719",
                  "display": "Human immunodeficiency virus [HIV] disease complicating pregnancy, unspecified trimester"
                },
                {
                  "code": "O98.72",
                  "display": "Human immunodeficiency virus [HIV] disease complicating childbirth"
                },
                {
                  "code": "O98.73",
                  "display": "Human immunodeficiency virus [HIV] disease complicating the puerperium"
                },
                {
                  "code": "Z21",
                  "display": "Asymptomatic human immunodeficiency virus [HIV] infection status"
                }
              ]
            },
            {
              "system": "http://hl7.org/fhir/sid/icd-9-cm",
              "version": "2013",
              "concept": [
                {
                  "code": "042",
                  "display": "Human immunodeficiency virus [HIV] disease"
                },
                {
                  "code": "042-042.99",
                  "display": "HUMAN IMMUNODEFICIENCY VIRUS [HIV] INFECTION"
                },
                {
                  "code": "079.53",
                  "display": "Human immunodeficiency virus, type 2 [HIV-2]"
                },
                {
                  "code": "795.71",
                  "display": "Nonspecific serologic evidence of human immunodeficiency virus [HIV]"
                },
                {
                  "code": "V08",
                  "display": "Asymptomatic human immunodeficiency virus [HIV] infection status"
                }
              ]
            },
            {
              "system": "http://snomed.info/sct",
              "version": "2013-09",
              "concept": [
                {
                  "code": "421184005",
                  "display": "Septicemia associated with AIDS (disorder)"
                }
              ]
            },
            {
              "system": "http://snomed.info/sct",
              "version": "2014-09",
              "concept": [
                {
                  "code": "431347008",
                  "display": "Lipodystrophy associated with Human immunodeficiency virus infection (disorder)"
                }
              ]
            },
            {
              "system": "http://snomed.info/sct",
              "version": "2015-03",
              "concept": [
                {
                  "code": "402916007",
                  "display": "Human immunodeficiency virus seropositivity (disorder)"
                }
              ]
            },
            {
              "system": "http://snomed.info/sct",
              "version": "2015-09",
              "concept": [
                {
                  "code": "186709004",
                  "display": "Human immunodeficiency virus with secondary cancers (disorder)"
                },
                {
                  "code": "186717007",
                  "display": "Human immunodeficiency virus disease resulting in mycobacterial infection (disorder)"
                },
                {
                  "code": "186718002",
                  "display": "Human immunodeficiency virus disease resulting in cytomegaloviral disease (disorder)"
                },
                {
                  "code": "186719005",
                  "display": "Human immunodeficiency virus disease resulting in candidiasis (disorder)"
                },
                {
                  "code": "186721000",
                  "display": "Human immunodeficiency virus disease resulting in multiple infections (disorder)"
                },
                {
                  "code": "186723002",
                  "display": "Human immunodeficiency virus disease resulting in Burkitt's lymphoma (disorder)"
                },
                {
                  "code": "186725009",
                  "display": "Human immunodeficiency virus disease resulting in multiple malignant neoplasms (disorder)"
                },
                {
                  "code": "186726005",
                  "display": "Human immunodeficiency virus disease resulting in lymphoid interstitial pneumonitis (disorder)"
                },
                {
                  "code": "230201009",
                  "display": "Human immunodeficiency virus myelitis (disorder)"
                },
                {
                  "code": "240611008",
                  "display": "Acquired immune deficiency syndrome-related complex (disorder)"
                },
                {
                  "code": "281390005",
                  "display": "Human immunodeficiency virus-related gut disease - cause unknown (disorder)"
                },
                {
                  "code": "359791000",
                  "display": "Acquired immunodeficiency syndrome with dermatomycosis (disorder)"
                },
                {
                  "code": "402915006",
                  "display": "Human immunodeficiency virus seroconversion exanthem (disorder)"
                },
                {
                  "code": "420749009",
                  "display": "Hypersplenism associated with acquired immunodeficiency syndrome (disorder)"
                },
                {
                  "code": "421009000",
                  "display": "Prion disease associated with acquired immunodeficiency syndrome (disorder)"
                },
                {
                  "code": "421473007",
                  "display": "Hypovolemia associated with acquired immunodeficiency syndrome (disorder)"
                },
                {
                  "code": "421792005",
                  "display": "Cryptosporidiosis associated with acquired immunodeficiency syndrome (disorder)"
                },
                {
                  "code": "421835000",
                  "display": "Immunoblastic lymphoma associated with acquired immunodeficiency syndrome (disorder)"
                },
                {
                  "code": "422031005",
                  "display": "Opportunistic mycosis associated with acquired immunodeficiency syndrome (disorder)"
                },
                {
                  "code": "422052002",
                  "display": "Burkitt's lymphoma associated with acquired immunodeficiency syndrome (disorder)"
                },
                {
                  "code": "5810003",
                  "display": "Human immunodeficiency virus infection with infection by another virus (disorder)"
                },
                {
                  "code": "62246005",
                  "display": "Acquired immunodeficiency syndrome-like syndrome (disorder)"
                },
                {
                  "code": "77070006",
                  "display": "Acquired immunodeficiency syndrome with Salmonella infection (disorder)"
                },
                {
                  "code": "78466009",
                  "display": "Positive serological AND/OR viral culture findings for human immunodeficiency virus (disorder)"
                }
              ]
            },
            {
              "system": "http://snomed.info/sct",
              "version": "2018-03",
              "concept": [
                {
                  "code": "103408004",
                  "display": "Human immunodeficiency virus Centers for Disease Control and Prevention category A3 (acquired immunodeficiency syndrome) (finding)"
                },
                {
                  "code": "103411003",
                  "display": "Human immunodeficiency virus Centers for Disease Control and Prevention category B3 (acquired immunodeficiency syndrome) (finding)"
                },
                {
                  "code": "103412005",
                  "display": "Human immunodeficiency virus Centers for Disease Control and Prevention category C1 (acquired immunodeficiency syndrome) (finding)"
                },
                {
                  "code": "103413000",
                  "display": "Human immunodeficiency virus Centers for Disease Control and Prevention category C2 (acquired immunodeficiency syndrome) (finding)"
                },
                {
                  "code": "103414006",
                  "display": "Human immunodeficiency virus Centers for Disease Control and Prevention category C3 (acquired immunodeficiency syndrome) (finding)"
                },
                {
                  "code": "111880001",
                  "display": "Acute human immunodeficiency virus infection (disorder)"
                },
                {
                  "code": "165816005",
                  "display": "Human immunodeficiency virus positive (finding)"
                },
                {
                  "code": "186706006",
                  "display": "Human immunodeficiency virus infection constitutional disease (disorder)"
                },
                {
                  "code": "186707002",
                  "display": "Human immunodeficiency virus infection with neurological disease (disorder)"
                },
                {
                  "code": "186708007",
                  "display": "Human immunodeficiency virus infection with secondary clinical infectious disease (disorder)"
                },
                {
                  "code": "230180003",
                  "display": "Human immunodeficiency virus leukoencephalopathy (disorder)"
                },
                {
                  "code": "230598008",
                  "display": "Neuropathy caused by human immunodeficiency virus (disorder)"
                },
                {
                  "code": "235009000",
                  "display": "Human immunodeficiency virus-associated periodontitis (disorder)"
                },
                {
                  "code": "235726002",
                  "display": "Human immunodeficiency virus enteropathy (disorder)"
                },
                {
                  "code": "236406007",
                  "display": "Acquired immune deficiency syndrome-related nephropathy (disorder)"
                },
                {
                  "code": "240103002",
                  "display": "Human immunodeficiency virus myopathy (disorder)"
                },
                {
                  "code": "281388009",
                  "display": "Human immunodeficiency virus-related sclerosing cholangitis (disorder)"
                },
                {
                  "code": "315019000",
                  "display": "Human immunodeficiency virus infection with aseptic meningitis (disorder)"
                },
                {
                  "code": "397763006",
                  "display": "Human immunodeficiency virus encephalopathy (disorder)"
                },
                {
                  "code": "398329009",
                  "display": "Human immunodeficiency virus encephalitis (disorder)"
                },
                {
                  "code": "402901009",
                  "display": "Oral hairy leukoplakia associated with human immunodeficiency virus disease (disorder)"
                },
                {
                  "code": "405631006",
                  "display": "Pediatric human immunodeficiency virus infection (disorder)"
                },
                {
                  "code": "40780007",
                  "display": "Human immunodeficiency virus I infection (disorder)"
                },
                {
                  "code": "414376003",
                  "display": "Hairy leukoplakia of tongue associated with human immunodeficiency virus disease (disorder)"
                },
                {
                  "code": "414604009",
                  "display": "Leukoplakia of tongue associated with human immunodeficiency virus disease (disorder)"
                },
                {
                  "code": "416729007",
                  "display": "Neutropenia associated with acquired immunodeficiency syndrome (disorder)"
                },
                {
                  "code": "420302007",
                  "display": "Reticulosarcoma associated with acquired immunodeficiency syndrome (disorder)"
                },
                {
                  "code": "420395004",
                  "display": "Acute endocarditis associated with acquired immunodeficiency syndrome (disorder)"
                },
                {
                  "code": "420403001",
                  "display": "Pneumocystosis associated with acquired immunodeficiency syndrome (disorder)"
                },
                {
                  "code": "420524008",
                  "display": "Kaposi's sarcoma associated with acquired immunodeficiency syndrome (disorder)"
                },
                {
                  "code": "420544002",
                  "display": "Bacterial pneumonia associated with acquired immunodeficiency syndrome (disorder)"
                },
                {
                  "code": "420554003",
                  "display": "Progressive multifocal leukoencephalopathy associated with acquired immunodeficiency syndrome (disorder)"
                },
                {
                  "code": "420614009",
                  "display": "Organic dementia associated with acquired immunodeficiency syndrome (disorder)"
                },
                {
                  "code": "420687005",
                  "display": "Ill-defined intestinal infection associated with acquired immunodeficiency syndrome (disorder)"
                },
                {
                  "code": "420721002",
                  "display": "Acquired immunodeficiency syndrome-associated disorder (disorder)"
                },
                {
                  "code": "420774007",
                  "display": "Organic brain syndrome associated with acquired immunodeficiency syndrome (disorder)"
                },
                {
                  "code": "420787001",
                  "display": "Pneumococcal pneumonia associated with acquired immunodeficiency syndrome (disorder)"
                },
                {
                  "code": "420801006",
                  "display": "Malaise associated with acquired immunodeficiency syndrome (disorder)"
                },
                {
                  "code": "420938005",
                  "display": "Subacute endocarditis associated with acquired immunodeficiency syndrome (disorder)"
                },
                {
                  "code": "421023003",
                  "display": "Presenile dementia associated with acquired immunodeficiency syndrome (disorder)"
                },
                {
                  "code": "421047005",
                  "display": "Candidiasis of lung associated with acquired immunodeficiency syndrome (disorder)"
                },
                {
                  "code": "421077004",
                  "display": "Disseminated candidiasis associated with acquired immunodeficiency syndrome (disorder)"
                },
                {
                  "code": "421230000",
                  "display": "Hepatomegaly associated with acquired immunodeficiency syndrome (disorder)"
                },
                {
                  "code": "421283008",
                  "display": "Primary lymphoma of brain associated with acquired immunodeficiency syndrome (disorder)"
                },
                {
                  "code": "421312009",
                  "display": "Agranulocytosis associated with acquired immunodeficiency syndrome (disorder)"
                },
                {
                  "code": "421415007",
                  "display": "Subacute adenoviral encephalitis associated with acquired immunodeficiency syndrome (disorder)"
                },
                {
                  "code": "421454008",
                  "display": "Infectious gastroenteritis associated with acquired immunodeficiency syndrome (disorder)"
                },
                {
                  "code": "421508002",
                  "display": "Viral pneumonia associated with acquired immunodeficiency syndrome (disorder)"
                },
                {
                  "code": "421510000",
                  "display": "Isosporiasis associated with acquired immunodeficiency syndrome (disorder)"
                },
                {
                  "code": "421529006",
                  "display": "Dementia associated with acquired immunodeficiency syndrome (disorder)"
                },
                {
                  "code": "421597001",
                  "display": "Polyneuropathy associated with acquired immunodeficiency syndrome (disorder)"
                },
                {
                  "code": "421671002",
                  "display": "Pneumonia associated with acquired immunodeficiency syndrome (disorder)"
                },
                {
                  "code": "421695000",
                  "display": "Abnormal weight loss associated with acquired immunodeficiency syndrome (finding)"
                },
                {
                  "code": "421983003",
                  "display": "Noninfectious gastroenteritis associated with acquired immunodeficiency syndrome (disorder)"
                },
                {
                  "code": "422003001",
                  "display": "Cachexia associated with acquired immunodeficiency syndrome (finding)"
                },
                {
                  "code": "422127002",
                  "display": "Herpes zoster associated with acquired immunodeficiency syndrome (disorder)"
                },
                {
                  "code": "422282000",
                  "display": "Malignant neoplasm associated with acquired immunodeficiency syndrome (disorder)"
                },
                {
                  "code": "442134007",
                  "display": "Hepatitis B associated with Human immunodeficiency virus infection (disorder)"
                },
                {
                  "code": "442537007",
                  "display": "Non-Hodgkin lymphoma associated with Human immunodeficiency virus infection (disorder)"
                },
                {
                  "code": "445945000",
                  "display": "Infectious disease associated with acquired immune deficiency syndrome (disorder)"
                },
                {
                  "code": "48794007",
                  "display": "Human immunodeficiency virus infection with infectious mononucleosis-like syndrome (disorder)"
                },
                {
                  "code": "52079000",
                  "display": "Congenital human immunodeficiency virus infection (disorder)"
                },
                {
                  "code": "62479008",
                  "display": "Acquired immune deficiency syndrome (disorder)"
                },
                {
                  "code": "700053002",
                  "display": "Sepsis associated with acquired immunodeficiency syndrome (disorder)"
                },
                {
                  "code": "713260006",
                  "display": "Subacute adenoviral encephalitis co-occurrent with human immunodeficiency virus infection (disorder)"
                },
                {
                  "code": "713275003",
                  "display": "Splenomegaly co-occurrent with human immunodeficiency virus infection (disorder)"
                },
                {
                  "code": "713278001",
                  "display": "Neuralgia co-occurrent with human immunodeficiency virus infection (disorder)"
                },
                {
                  "code": "713297001",
                  "display": "Candidiasis of esophagus co-occurrent with human immunodeficiency virus infection (disorder)"
                },
                {
                  "code": "713298006",
                  "display": "Heart disease co-occurrent with human immunodeficiency virus infection (disorder)"
                },
                {
                  "code": "713299003",
                  "display": "Disorder of eye proper co-occurrent with human immunodeficiency virus infection (disorder)"
                },
                {
                  "code": "713300006",
                  "display": "Disorder of gastrointestinal tract co-occurrent with human immunodeficiency virus infection (disorder)"
                },
                {
                  "code": "713316008",
                  "display": "Eruption of skin co-occurrent with human immunodeficiency virus infection (disorder)"
                },
                {
                  "code": "713318009",
                  "display": "Myocarditis co-occurrent with human immunodeficiency virus infection (disorder)"
                },
                {
                  "code": "713320007",
                  "display": "Radiculitis co-occurrent with human immunodeficiency virus infection (disorder)"
                },
                {
                  "code": "713325002",
                  "display": "Primary cerebral lymphoma co-occurrent with human immunodeficiency virus infection (disorder)"
                },
                {
                  "code": "713339002",
                  "display": "Infection caused by Strongyloides co-occurrent with human immunodeficiency virus infection (disorder)"
                },
                {
                  "code": "713340000",
                  "display": "Disorder of skin co-occurrent with human immunodeficiency virus infection (disorder)"
                },
                {
                  "code": "713341001",
                  "display": "Myelitis co-occurrent with human immunodeficiency virus infection (disorder)"
                },
                {
                  "code": "713342008",
                  "display": "Infection caused by Salmonella co-occurrent with human immunodeficiency virus infection (disorder)"
                },
                {
                  "code": "713349004",
                  "display": "Anemia co-occurrent with human immunodeficiency virus infection (disorder)"
                },
                {
                  "code": "713444005",
                  "display": "Hemophagocytic syndrome co-occurrent with human immunodeficiency virus infection (disorder)"
                },
                {
                  "code": "713445006",
                  "display": "Disseminated infection caused by Strongyloides co-occurrent with human immunodeficiency virus infection (disorder)"
                },
                {
                  "code": "713446007",
                  "display": "Chronic infection caused by herpes simplex virus co-occurrent with human immunodeficiency virus infection (disorder)"
                },
                {
                  "code": "713483007",
                  "display": "Reticulosarcoma co-occurrent with human immunodeficiency virus infection (disorder)"
                },
                {
                  "code": "713484001",
                  "display": "Disorder of respiratory system co-occurrent with human immunodeficiency virus infection (disorder)"
                },
                {
                  "code": "713487008",
                  "display": "Progressive multifocal leukoencephalopathy co-occurrent with human immunodeficiency virus infection (disorder)"
                },
                {
                  "code": "713488003",
                  "display": "Presenile dementia co-occurrent with human immunodeficiency virus infection (disorder)"
                },
                {
                  "code": "713489006",
                  "display": "Polyneuropathy co-occurrent with human immunodeficiency virus infection (disorder)"
                },
                {
                  "code": "713490002",
                  "display": "Infection caused by Pneumocystis co-occurrent with human immunodeficiency virus infection (disorder)"
                },
                {
                  "code": "713491003",
                  "display": "Organic brain syndrome co-occurrent with human immunodeficiency virus infection (disorder)"
                },
                {
                  "code": "713497004",
                  "display": "Candidiasis of mouth co-occurrent with human immunodeficiency virus infection (disorder)"
                },
                {
                  "code": "713503007",
                  "display": "Disorder of spinal cord co-occurrent with human immunodeficiency virus infection (disorder)"
                },
                {
                  "code": "713504001",
                  "display": "Disorder of kidney co-occurrent with human immunodeficiency virus infection (disorder)"
                },
                {
                  "code": "713505000",
                  "display": "Gastrointestinal malabsorption syndrome co-occurrent with human immunodeficiency virus infection (disorder)"
                },
                {
                  "code": "713506004",
                  "display": "Neuritis co-occurrent with human immunodeficiency virus infection (disorder)"
                },
                {
                  "code": "713507008",
                  "display": "Lymphadenopathy co-occurrent with human immunodeficiency virus infection (disorder)"
                },
                {
                  "code": "713508003",
                  "display": "Aplastic anemia co-occurrent with human immunodeficiency virus infection (disorder)"
                },
                {
                  "code": "713510001",
                  "display": "Enlargement of liver co-occurrent with human immunodeficiency virus infection (disorder)"
                },
                {
                  "code": "713511002",
                  "display": "Acute endocarditis co-occurrent with human immunodeficiency virus infection (disorder)"
                },
                {
                  "code": "713523008",
                  "display": "Cardiomyopathy co-occurrent with human immunodeficiency virus infection (disorder)"
                },
                {
                  "code": "713526000",
                  "display": "Recurrent bacterial pneumonia co-occurrent with human immunodeficiency virus infection (disorder)"
                },
                {
                  "code": "713527009",
                  "display": "Disorder of peripheral nervous system co-occurrent with human immunodeficiency virus infection (disorder)"
                },
                {
                  "code": "713530002",
                  "display": "Agranulocytosis co-occurrent with human immunodeficiency virus infection (disorder)"
                },
                {
                  "code": "713531003",
                  "display": "Visual impairment co-occurrent with human immunodeficiency virus infection (disorder)"
                },
                {
                  "code": "713532005",
                  "display": "Infective arthritis co-occurrent with human immunodeficiency virus infection (disorder)"
                },
                {
                  "code": "713533000",
                  "display": "Acquired hemolytic anemia co-occurrent with human immunodeficiency virus infection (disorder)"
                },
                {
                  "code": "713543002",
                  "display": "Demyelinating disease of central nervous system co-occurrent with human immunodeficiency virus infection (disorder)"
                },
                {
                  "code": "713544008",
                  "display": "Bacterial pneumonia co-occurrent with human immunodeficiency virus infection (disorder)"
                },
                {
                  "code": "713545009",
                  "display": "Infection caused by Nocardia co-occurrent with human immunodeficiency virus infection (disorder)"
                },
                {
                  "code": "713546005",
                  "display": "Isosporiasis co-occurrent with human immunodeficiency virus infection (disorder)"
                },
                {
                  "code": "713570009",
                  "display": "Infectious gastroenteritis co-occurrent with human immunodeficiency virus infection (disorder)"
                },
                {
                  "code": "713571008",
                  "display": "Disorder of central nervous system co-occurrent with human immunodeficiency virus infection (disorder)"
                },
                {
                  "code": "713572001",
                  "display": "Malignant neoplastic disease co-occurrent with human immunodeficiency virus infection (disorder)"
                },
                {
                  "code": "713695001",
                  "display": "Nephrotic syndrome co-occurrent with human immunodeficiency virus infection (disorder)"
                },
                {
                  "code": "713696000",
                  "display": "Renal failure syndrome co-occurrent with human immunodeficiency virus infection (disorder)"
                },
                {
                  "code": "713718006",
                  "display": "Diffuse non-Hodgkin immunoblastic lymphoma co-occurrent with human immunodeficiency virus infection (disorder)"
                },
                {
                  "code": "713722001",
                  "display": "Infection caused by Cytomegalovirus co-occurrent with human immunodeficiency virus infection (disorder)"
                },
                {
                  "code": "713729005",
                  "display": "Infection caused by Coccidia co-occurrent with human immunodeficiency virus infection (disorder)"
                },
                {
                  "code": "713730000",
                  "display": "Infection caused by herpes simplex virus co-occurrent with human immunodeficiency virus infection (disorder)"
                },
                {
                  "code": "713731001",
                  "display": "Pyrexia of unknown origin co-occurrent with human immunodeficiency virus infection (disorder)"
                },
                {
                  "code": "713732008",
                  "display": "Infection caused by Aspergillus co-occurrent with human immunodeficiency virus infection (disorder)"
                },
                {
                  "code": "713733003",
                  "display": "Infection caused by herpes zoster virus co-occurrent with human immunodeficiency virus infection (disorder)"
                },
                {
                  "code": "713734009",
                  "display": "Infection caused by Dermatophyte co-occurrent with human immunodeficiency virus infection (disorder)"
                },
                {
                  "code": "713844000",
                  "display": "Dementia co-occurrent with human immunodeficiency virus infection (disorder)"
                },
                {
                  "code": "713845004",
                  "display": "Infection caused by Cryptosporidium co-occurrent with human immunodeficiency virus infection (disorder)"
                },
                {
                  "code": "713880000",
                  "display": "Opportunistic mycosis co-occurrent with human immunodeficiency virus infection (disorder)"
                },
                {
                  "code": "713881001",
                  "display": "Infection caused by Microsporidia co-occurrent with human immunodeficiency virus infection (disorder)"
                },
                {
                  "code": "713887002",
                  "display": "Focal segmental glomerulosclerosis co-occurrent with human immunodeficiency virus infection (disorder)"
                },
                {
                  "code": "713897006",
                  "display": "Burkitt lymphoma co-occurrent with human immunodeficiency virus infection (disorder)"
                },
                {
                  "code": "713964006",
                  "display": "Multidermatomal infection caused by Herpes zoster co-occurrent with human immunodeficiency virus infection (disorder)"
                },
                {
                  "code": "713967004",
                  "display": "Disseminated atypical infection caused by Mycobacterium co-occurrent with human immunodeficiency virus infection (disorder)"
                },
                {
                  "code": "714083007",
                  "display": "Recurrent salmonella sepsis co-occurrent with human immunodeficiency virus infection (disorder)"
                },
                {
                  "code": "714464009",
                  "display": "Immune reconstitution inflammatory syndrome caused by human immunodeficiency virus infection (disorder)"
                },
                {
                  "code": "72621000119104",
                  "display": "Human immunodeficiency virus (HIV) II infection category B1 (disorder)"
                },
                {
                  "code": "79019005",
                  "display": "Human immunodeficiency virus II infection (disorder)"
                },
                {
                  "code": "81000119104",
                  "display": "Symptomatic human immunodeficiency virus infection (disorder)"
                },
                {
                  "code": "86406008",
                  "display": "Human immunodeficiency virus infection (disorder)"
                },
                {
                  "code": "87117006",
                  "display": "Human immunodeficiency virus infection with acute lymphadenitis (disorder)"
                },
                {
                  "code": "91923005",
                  "display": "Acquired immunodeficiency syndrome virus infection associated with pregnancy (disorder)"
                },
                {
                  "code": "91947003",
                  "display": "Asymptomatic human immunodeficiency virus infection (disorder)"
                },
                {
                  "code": "91948008",
                  "display": "Asymptomatic human immunodeficiency virus infection in pregnancy (disorder)"
                }
              ]
            }
          ]
        }
      },
      "request": {
        "method": "PUT",
        "url": "ValueSet/2.16.840.1.113762.1.4.1056.54"
      }
    },
    {
      "resource": {
        "resourceType": "ValueSet",
        "id": "2.16.840.1.113883.3.464.1003.101.12.1022",
        "url": "http://cts.nlm.nih.gov/fhir/ValueSet/2.16.840.1.113883.3.464.1003.101.12.1022",
        "identifier": [
          {
            "system": "urn:ietf:rfc:3986",
            "value": "2.16.840.1.113883.3.464.1003.101.12.1022"
          }
        ],
        "version": "20170504",
        "name": "PreventiveCareServices,InitialOfficeVisit,0to17",
        "title": "Preventive Care Services, Initial Office Visit, 0 to 17",
        "status": "active",
        "publisher": "NLM",
        "compose": {
          "include": [
            {
              "system": "http://www.ama-assn.org/go/cpt",
              "version": "2018",
              "concept": [
                {
                  "code": "99381",
                  "display": "Initial comprehensive preventive medicine evaluation and management of an individual including an age and gender appropriate history, examination, counseling/anticipatory guidance/risk factor reduction interventions, and the ordering of laboratory/diagnostic procedures, new patient; infant (age younger than 1 year)"
                },
                {
                  "code": "99382",
                  "display": "Initial comprehensive preventive medicine evaluation and management of an individual including an age and gender appropriate history, examination, counseling/anticipatory guidance/risk factor reduction interventions, and the ordering of laboratory/diagnostic procedures, new patient; early childhood (age 1 through 4 years)"
                },
                {
                  "code": "99383",
                  "display": "Initial comprehensive preventive medicine evaluation and management of an individual including an age and gender appropriate history, examination, counseling/anticipatory guidance/risk factor reduction interventions, and the ordering of laboratory/diagnostic procedures, new patient; late childhood (age 5 through 11 years)"
                },
                {
                  "code": "99384",
                  "display": "Initial comprehensive preventive medicine evaluation and management of an individual including an age and gender appropriate history, examination, counseling/anticipatory guidance/risk factor reduction interventions, and the ordering of laboratory/diagnostic procedures, new patient; adolescent (age 12 through 17 years)"
                }
              ]
            }
          ]
        }
      },
      "request": {
        "method": "PUT",
        "url": "ValueSet/2.16.840.1.113883.3.464.1003.101.12.1022"
      }
    },
    {
      "resource": {
        "resourceType": "ValueSet",
        "id": "2.16.840.1.113762.1.4.1",
        "url": "http://cts.nlm.nih.gov/fhir/ValueSet/2.16.840.1.113762.1.4.1",
        "identifier": [
          {
            "system": "urn:ietf:rfc:3986",
            "value": "2.16.840.1.113762.1.4.1"
          }
        ],
        "version": "20150331",
        "name": "ONCAdministrativeSex",
        "title": "ONC Administrative Sex",
        "status": "active",
        "publisher": "NLM",
        "compose": {
          "include": [
            {
              "system": "http://hl7.org/fhir/v3/AdministrativeGender",
              "version": "HL7V3.0_2017-07",
              "concept": [
                {
                  "code": "F",
                  "display": "Female"
                },
                {
                  "code": "M",
                  "display": "Male"
                }
              ]
            }
          ]
        }
      },
      "request": {
        "method": "PUT",
        "url": "ValueSet/2.16.840.1.113762.1.4.1"
      }
    },
    {
      "resource": {
        "resourceType": "ValueSet",
        "id": "2.16.840.1.114222.4.11.3591",
        "url": "http://cts.nlm.nih.gov/fhir/ValueSet/2.16.840.1.114222.4.11.3591",
        "identifier": [
          {
            "system": "urn:ietf:rfc:3986",
            "value": "2.16.840.1.114222.4.11.3591"
          }
        ],
        "version": "20180718",
        "name": "Payer",
        "title": "Payer",
        "status": "active",
        "publisher": "NLM",
        "compose": {
          "include": [
            {
              "system": "http://www.phdsc.org/standards/pdfs/SourceofPaymentTypologyVersion6FINALSeptember2015.pdf",
              "version": "8.0",
              "concept": [
                {
                  "code": "1",
                  "display": "MEDICARE"
                },
                {
                  "code": "11",
                  "display": "Medicare (Managed Care)"
                },
                {
                  "code": "111",
                  "display": "Medicare HMO"
                },
                {
                  "code": "112",
                  "display": "Medicare PPO"
                },
                {
                  "code": "113",
                  "display": "Medicare POS"
                },
                {
                  "code": "119",
                  "display": "Medicare Managed Care Other"
                },
                {
                  "code": "12",
                  "display": "Medicare (Non-managed Care)"
                },
                {
                  "code": "121",
                  "display": "Medicare FFS"
                },
                {
                  "code": "122",
                  "display": "Medicare Drug Benefit"
                },
                {
                  "code": "123",
                  "display": "Medicare Medical Savings Account (MSA)"
                },
                {
                  "code": "129",
                  "display": "Medicare Non-managed Care Other"
                },
                {
                  "code": "13",
                  "display": "Medicare Hospice"
                },
                {
                  "code": "14",
                  "display": "Dual Eligibility Medicare/Medicaid Organization"
                },
                {
                  "code": "19",
                  "display": "Medicare Other"
                },
                {
                  "code": "191",
                  "display": "Medicare Pharmacy Benefit Manager"
                },
                {
                  "code": "2",
                  "display": "MEDICAID"
                },
                {
                  "code": "21",
                  "display": "Medicaid (Managed Care)"
                },
                {
                  "code": "211",
                  "display": "Medicaid HMO"
                },
                {
                  "code": "212",
                  "display": "Medicaid PPO"
                },
                {
                  "code": "213",
                  "display": "Medicaid PCCM (Primary Care Case Management)"
                },
                {
                  "code": "219",
                  "display": "Medicaid Managed Care Other"
                },
                {
                  "code": "22",
                  "display": "Medicaid (Non-managed Care Plan)"
                },
                {
                  "code": "23",
                  "display": "Medicaid/SCHIP"
                },
                {
                  "code": "25",
                  "display": "Medicaid - Out of State"
                },
                {
                  "code": "26",
                  "display": "Medicaid -- Long Term Care"
                },
                {
                  "code": "29",
                  "display": "Medicaid Other"
                },
                {
                  "code": "291",
                  "display": "Medicaid Pharmacy Benefit Manager"
                },
                {
                  "code": "299",
                  "display": "Medicaid - Dental"
                },
                {
                  "code": "3",
                  "display": "OTHER GOVERNMENT (Federal/State/Local) (excluding Department of Corrections)"
                },
                {
                  "code": "31",
                  "display": "Department of Defense"
                },
                {
                  "code": "311",
                  "display": "TRICARE (CHAMPUS)"
                },
                {
                  "code": "3111",
                  "display": "TRICARE Prime--HMO"
                },
                {
                  "code": "3112",
                  "display": "TRICARE Extra--PPO"
                },
                {
                  "code": "3113",
                  "display": "TRICARE Standard - Fee For Service"
                },
                {
                  "code": "3114",
                  "display": "TRICARE For Life--Medicare Supplement"
                },
                {
                  "code": "3115",
                  "display": "TRICARE Reserve Select"
                },
                {
                  "code": "3116",
                  "display": "Uniformed Services Family Health Plan (USFHP) -- HMO"
                },
                {
                  "code": "3119",
                  "display": "Department of Defense - (other)"
                },
                {
                  "code": "312",
                  "display": "Military Treatment Facility"
                },
                {
                  "code": "3121",
                  "display": "Enrolled Prime--HMO"
                },
                {
                  "code": "3122",
                  "display": "Non-enrolled Space Available"
                },
                {
                  "code": "3123",
                  "display": "TRICARE For Life (TFL)"
                },
                {
                  "code": "313",
                  "display": "Dental --Stand Alone"
                },
                {
                  "code": "32",
                  "display": "Department of Veterans Affairs"
                },
                {
                  "code": "321",
                  "display": "Veteran care--Care provided to Veterans"
                },
                {
                  "code": "3211",
                  "display": "Direct Care--Care provided in VA facilities"
                },
                {
                  "code": "3212",
                  "display": "Indirect Care--Care provided outside VA facilities"
                },
                {
                  "code": "32121",
                  "display": "Fee Basis"
                },
                {
                  "code": "32122",
                  "display": "Foreign Fee/Foreign Medical Program (FMP)"
                },
                {
                  "code": "32123",
                  "display": "Contract Nursing Home/Community Nursing Home"
                },
                {
                  "code": "32124",
                  "display": "State Veterans Home"
                },
                {
                  "code": "32125",
                  "display": "Sharing Agreements"
                },
                {
                  "code": "32126",
                  "display": "Other Federal Agency"
                },
                {
                  "code": "32127",
                  "display": "Dental Care"
                },
                {
                  "code": "32128",
                  "display": "Vision Care"
                },
                {
                  "code": "322",
                  "display": "Non-veteran care"
                },
                {
                  "code": "3221",
                  "display": "Civilian Health and Medical Program for the VA (CHAMPVA)"
                },
                {
                  "code": "3222",
                  "display": "Spina Bifida Health Care Program (SB)"
                },
                {
                  "code": "3223",
                  "display": "Children of Women Vietnam Veterans (CWVV)"
                },
                {
                  "code": "3229",
                  "display": "Other non-veteran care"
                },
                {
                  "code": "33",
                  "display": "Indian Health Service or Tribe"
                },
                {
                  "code": "331",
                  "display": "Indian Health Service -- Regular"
                },
                {
                  "code": "332",
                  "display": "Indian Health Service -- Contract"
                },
                {
                  "code": "333",
                  "display": "Indian Health Service - Managed Care"
                },
                {
                  "code": "334",
                  "display": "Indian Tribe - Sponsored Coverage"
                },
                {
                  "code": "34",
                  "display": "HRSA Program"
                },
                {
                  "code": "341",
                  "display": "Title V (MCH Block Grant)"
                },
                {
                  "code": "342",
                  "display": "Migrant Health Program"
                },
                {
                  "code": "343",
                  "display": "Ryan White Act"
                },
                {
                  "code": "349",
                  "display": "Other"
                },
                {
                  "code": "35",
                  "display": "Black Lung"
                },
                {
                  "code": "36",
                  "display": "State Government"
                },
                {
                  "code": "361",
                  "display": "State SCHIP program (codes for individual states)"
                },
                {
                  "code": "362",
                  "display": "Specific state programs (list/ local code)"
                },
                {
                  "code": "369",
                  "display": "State, not otherwise specified (other state)"
                },
                {
                  "code": "37",
                  "display": "Local Government"
                },
                {
                  "code": "371",
                  "display": "Local - Managed care"
                },
                {
                  "code": "3711",
                  "display": "HMO"
                },
                {
                  "code": "3712",
                  "display": "PPO"
                },
                {
                  "code": "3713",
                  "display": "POS"
                },
                {
                  "code": "372",
                  "display": "FFS/Indemnity"
                },
                {
                  "code": "379",
                  "display": "Local, not otherwise specified (other local, county)"
                },
                {
                  "code": "38",
                  "display": "Other Government (Federal, State, Local not specified)"
                },
                {
                  "code": "381",
                  "display": "Federal, State, Local not specified managed care"
                },
                {
                  "code": "3811",
                  "display": "Federal, State, Local not specified - HMO"
                },
                {
                  "code": "3812",
                  "display": "Federal, State, Local not specified - PPO"
                },
                {
                  "code": "3813",
                  "display": "Federal, State, Local not specified - POS"
                },
                {
                  "code": "3819",
                  "display": "Federal, State, Local not specified - not specified managed care"
                },
                {
                  "code": "382",
                  "display": "Federal, State, Local not specified - FFS"
                },
                {
                  "code": "389",
                  "display": "Federal, State, Local not specified - Other"
                },
                {
                  "code": "39",
                  "display": "Other Federal"
                },
                {
                  "code": "391",
                  "display": "Federal Employee Health Plan - Use when known"
                },
                {
                  "code": "4",
                  "display": "DEPARTMENTS OF CORRECTIONS"
                },
                {
                  "code": "41",
                  "display": "Corrections Federal"
                },
                {
                  "code": "42",
                  "display": "Corrections State"
                },
                {
                  "code": "43",
                  "display": "Corrections Local"
                },
                {
                  "code": "44",
                  "display": "Corrections Unknown Level"
                },
                {
                  "code": "5",
                  "display": "PRIVATE HEALTH INSURANCE"
                },
                {
                  "code": "51",
                  "display": "Managed Care (Private)"
                },
                {
                  "code": "511",
                  "display": "Commercial Managed Care - HMO"
                },
                {
                  "code": "512",
                  "display": "Commercial Managed Care - PPO"
                },
                {
                  "code": "513",
                  "display": "Commercial Managed Care - POS"
                },
                {
                  "code": "514",
                  "display": "Exclusive Provider Organization"
                },
                {
                  "code": "515",
                  "display": "Gatekeeper PPO (GPPO)"
                },
                {
                  "code": "516",
                  "display": "Commercial Managed Care - Pharmacy Benefit Manager"
                },
                {
                  "code": "517",
                  "display": "Commercial Managed Care - Dental"
                },
                {
                  "code": "519",
                  "display": "Managed Care, Other (non HMO)"
                },
                {
                  "code": "52",
                  "display": "Private Health Insurance - Indemnity"
                },
                {
                  "code": "521",
                  "display": "Commercial Indemnity"
                },
                {
                  "code": "522",
                  "display": "Self-insured (ERISA) Administrative Services Only (ASO) plan"
                },
                {
                  "code": "523",
                  "display": "Medicare supplemental policy (as second payer)"
                },
                {
                  "code": "524",
                  "display": "Indemnity Insurance - Dental"
                },
                {
                  "code": "529",
                  "display": "Private health insurance--other commercial Indemnity"
                },
                {
                  "code": "53",
                  "display": "Managed Care (private) or private health insurance (indemnity), not otherwise specified"
                },
                {
                  "code": "54",
                  "display": "Organized Delivery System"
                },
                {
                  "code": "55",
                  "display": "Small Employer Purchasing Group"
                },
                {
                  "code": "56",
                  "display": "Specialized Stand Alone Plan"
                },
                {
                  "code": "561",
                  "display": "Dental"
                },
                {
                  "code": "562",
                  "display": "Vision"
                },
                {
                  "code": "59",
                  "display": "Other Private Insurance"
                },
                {
                  "code": "6",
                  "display": "BLUE CROSS/BLUE SHIELD"
                },
                {
                  "code": "61",
                  "display": "BC Managed Care"
                },
                {
                  "code": "611",
                  "display": "BC Managed Care -- HMO"
                },
                {
                  "code": "612",
                  "display": "BC Managed Care -- PPO"
                },
                {
                  "code": "613",
                  "display": "BC Managed Care -- POS"
                },
                {
                  "code": "614",
                  "display": "BC Managed Care - Dental"
                },
                {
                  "code": "619",
                  "display": "BC Managed Care -- Other"
                },
                {
                  "code": "62",
                  "display": "BC Insurance Indemnity"
                },
                {
                  "code": "621",
                  "display": "BC Indemnity"
                },
                {
                  "code": "622",
                  "display": "BC Self-insured (ERISA) Administrative Services Only (ASO)Plan"
                },
                {
                  "code": "623",
                  "display": "BC Medicare Supplemental Plan"
                },
                {
                  "code": "629",
                  "display": "BC Indemnity - Dental"
                },
                {
                  "code": "7",
                  "display": "MANAGED CARE, UNSPECIFIED (to be used only if one can't distinguish public from private)"
                },
                {
                  "code": "71",
                  "display": "HMO"
                },
                {
                  "code": "72",
                  "display": "PPO"
                },
                {
                  "code": "73",
                  "display": "POS"
                },
                {
                  "code": "79",
                  "display": "Other Managed Care"
                },
                {
                  "code": "8",
                  "display": "NO PAYMENT from an Organization/Agency/Program/Private Payer Listed"
                },
                {
                  "code": "81",
                  "display": "Self-pay (Includes applicants for insurance and Medicaid applicants)"
                },
                {
                  "code": "82",
                  "display": "No Charge"
                },
                {
                  "code": "821",
                  "display": "Charity"
                },
                {
                  "code": "822",
                  "display": "Professional Courtesy"
                },
                {
                  "code": "823",
                  "display": "Research/Clinical Trial"
                },
                {
                  "code": "83",
                  "display": "Refusal to Pay/Bad Debt"
                },
                {
                  "code": "84",
                  "display": "Hill Burton Free Care"
                },
                {
                  "code": "85",
                  "display": "Research/Donor"
                },
                {
                  "code": "89",
                  "display": "No Payment, Other"
                },
                {
                  "code": "9",
                  "display": "MISCELLANEOUS/OTHER"
                },
                {
                  "code": "91",
                  "display": "Foreign National"
                },
                {
                  "code": "92",
                  "display": "Other (Non-government)"
                },
                {
                  "code": "93",
                  "display": "Disability Insurance"
                },
                {
                  "code": "94",
                  "display": "Long-term Care Insurance"
                },
                {
                  "code": "95",
                  "display": "Worker's Compensation"
                },
                {
                  "code": "951",
                  "display": "Worker's Comp HMO"
                },
                {
                  "code": "953",
                  "display": "Worker's Comp Fee-for-Service"
                },
                {
                  "code": "954",
                  "display": "Worker's Comp Other Managed Care"
                },
                {
                  "code": "959",
                  "display": "Worker's Comp, Other unspecified"
                },
                {
                  "code": "96",
                  "display": "Auto Insurance (includes no fault)"
                },
                {
                  "code": "97",
                  "display": "Legal Liability / Liability Insurance"
                },
                {
                  "code": "98",
                  "display": "Other specified but not otherwise classifiable (includes Hospice - Unspecified plan)"
                },
                {
                  "code": "99",
                  "display": "No Typology Code available for payment source"
                },
                {
                  "code": "9999",
                  "display": "Unavailable / No Payer Specified / Blank"
                }
              ]
            }
          ]
        }
      },
      "request": {
        "method": "PUT",
        "url": "ValueSet/2.16.840.1.114222.4.11.3591"
      }
    },
    {
      "resource": {
        "resourceType": "Observation",
        "id": "numer-EXM349-FHIR3-4",
        "status": "final",
        "code": {
          "coding": [
            {
              "system": "http://loinc.org",
              "code": "10901-7",
              "display": "HIV 2 gp125 Ab [Presence] in Serum by Immunoblot"
            }
          ]
        },
        "subject": {
          "reference": "Patient/numer-EXM349-FHIR3"
        },
        "effectiveDateTime": "2019-10-21T00:00:00-06:00",
        "valueBoolean": true
      },
      "request": {
        "method": "PUT",
        "url": "Observation/numer-EXM349-FHIR3-4"
      }
    },
    {
      "resource": {
        "resourceType": "ValueSet",
        "id": "2.16.840.1.113883.3.666.5.307",
        "url": "http://cts.nlm.nih.gov/fhir/ValueSet/2.16.840.1.113883.3.666.5.307",
        "identifier": [
          {
            "system": "urn:ietf:rfc:3986",
            "value": "2.16.840.1.113883.3.666.5.307"
          }
        ],
        "version": "20170504",
        "name": "EncounterInpatient",
        "title": "Encounter Inpatient",
        "status": "active",
        "publisher": "NLM",
        "compose": {
          "include": [
            {
              "system": "http://snomed.info/sct",
              "version": "2018-03",
              "concept": [
                {
                  "code": "183452005",
                  "display": "Emergency hospital admission (procedure)"
                },
                {
                  "code": "32485007",
                  "display": "Hospital admission (procedure)"
                },
                {
                  "code": "8715000",
                  "display": "Hospital admission, elective (procedure)"
                }
              ]
            }
          ]
        }
      },
      "request": {
        "method": "PUT",
        "url": "ValueSet/2.16.840.1.113883.3.666.5.307"
      }
    },
    {
      "resource": {
        "resourceType": "Patient",
        "id": "numer-EXM349-FHIR3",
        "meta": {
          "profile": [
            "http://hl7.org/fhir/us/core/StructureDefinition/us-core-patient"
          ]
        },
        "extension": [
          {
            "url": "http://hl7.org/fhir/us/core/StructureDefinition/us-core-race",
            "extension": [
              {
                "url": "ombCategory",
                "valueCoding": {
                  "system": "urn:oid:2.16.840.1.113883.6.238",
                  "code": "2106-3",
                  "display": "White"
                }
              }
            ]
          },
          {
            "url": "http://hl7.org/fhir/us/core/StructureDefinition/us-core-ethnicity",
            "extension": [
              {
                "url": "ombCategory",
                "valueCoding": {
                  "system": "urn:oid:2.16.840.1.113883.6.238",
                  "code": "2186-5",
                  "display": "Not Hispanic or Latino"
                }
              }
            ]
          }
        ],
        "identifier": [
          {
            "use": "usual",
            "type": {
              "coding": [
                {
                  "system": "http://terminology.hl7.org/CodeSystem/v2-0203",
                  "code": "MR",
                  "display": "Medical Record Number"
                }
              ]
            },
            "system": "http://hospital.smarthealthit.org",
            "value": "9999999911"
          }
        ],
        "name": [
          {
            "family": "Jones",
            "given": [
              "Louise"
            ]
          }
        ],
        "gender": "female",
        "birthDate": "1995-11-21"
      },
      "request": {
        "method": "PUT",
        "url": "Patient/numer-EXM349-FHIR3"
      }
    },
    {
      "resource": {
        "resourceType": "ValueSet",
        "id": "2.16.840.1.113883.3.117.1.7.1.292",
        "url": "http://cts.nlm.nih.gov/fhir/ValueSet/2.16.840.1.113883.3.117.1.7.1.292",
        "title": "Emergency Department Visit",
        "status": "active",
        "publisher": "The Joint Commission",
        "compose": {
          "include": [
            {
              "system": "http://snomed.info/sct",
              "version": "2019-03",
              "concept": [
                {
                  "code": "4525004",
                  "display": "Emergency department patient visit (procedure)"
                }
              ]
            }
          ]
        }
      },
      "request": {
        "method": "PUT",
        "url": "ValueSet/2.16.840.1.113883.3.117.1.7.1.292"
      }
    },
    {
      "resource": {
        "resourceType": "MeasureReport",
        "id": "measurereport-numer-EXM349-FHIR3",
        "contained": [
          {
            "resourceType": "Bundle",
            "id": "b1b72ea5-3e10-43fc-965c-07368ee754db",
            "type": "collection",
            "entry": [
              {
                "fullUrl": "1ee9e753-0358-49d4-a1f4-18bcf7d4e987",
                "resource": {
                  "resourceType": "List",
                  "id": "1ee9e753-0358-49d4-a1f4-18bcf7d4e987",
                  "title": "numerator",
                  "entry": [
                    {
                      "item": {
                        "reference": "#Observation/numer-EXM349-FHIR3-4/_history/1"
                      }
                    }
                  ]
                }
              },
              {
                "fullUrl": "Encounter/numer-EXM349-FHIR3-2/_history/1",
                "resource": {
                  "resourceType": "Encounter",
                  "id": "numer-EXM349-FHIR3-2",
                  "meta": {
                    "versionId": "1",
                    "lastUpdated": "2019-12-18T11:39:28.423-07:00",
                    "profile": [
                      "http://hl7.org/fhir/us/core/StructureDefinition/us-core-encounter"
                    ]
                  },
                  "status": "finished",
                  "type": [
                    {
                      "coding": [
                        {
                          "system": "http://www.ama-assn.org/go/cpt",
                          "code": "99386",
                          "display": "Initial comprehensive preventive medicine evaluation and management of an individual including an age and gender appropriate history, examination, counseling/anticipatory guidance/risk factor reduction interventions, and the ordering of laboratory/diagnostic procedures, new patient; 40-64 years"
                        }
                      ]
                    }
                  ],
                  "subject": {
                    "reference": "Patient/numer-EXM349-FHIR3"
                  },
                  "period": {
                    "start": "2019-08-21T00:00:00-06:00",
                    "end": "2019-12-19T08:15:00-07:00"
                  }
                }
              },
              {
                "fullUrl": "Observation/numer-EXM349-FHIR3-4/_history/1",
                "resource": {
                  "resourceType": "Observation",
                  "id": "numer-EXM349-FHIR3-4",
                  "meta": {
                    "versionId": "1",
                    "lastUpdated": "2019-12-18T11:39:28.423-07:00"
                  },
                  "status": "final",
                  "code": {
                    "coding": [
                      {
                        "system": "http://loinc.org",
                        "code": "10901-7",
                        "display": "HIV 2 gp125 Ab [Presence] in Serum by Immunoblot"
                      }
                    ]
                  },
                  "subject": {
                    "reference": "Patient/numer-EXM349-FHIR3"
                  },
                  "effectiveDateTime": "2019-10-21T00:00:00-06:00",
                  "valueBoolean": true
                }
              },
              {
                "fullUrl": "Patient/numer-EXM349-FHIR3/_history/1",
                "resource": {
                  "resourceType": "Patient",
                  "id": "numer-EXM349-FHIR3",
                  "meta": {
                    "versionId": "1",
                    "lastUpdated": "2019-12-18T11:39:28.423-07:00",
                    "profile": [
                      "http://hl7.org/fhir/us/core/StructureDefinition/us-core-patient"
                    ]
                  },
                  "text": {
                    "status": "generated",
                    "div": "<div xmlns=\"http://www.w3.org/1999/xhtml\"><div class=\"hapiHeaderText\">Louise <b>JONES </b></div><table class=\"hapiPropertyTable\"><tbody><tr><td>Identifier</td><td>9999999911</td></tr><tr><td>Date of birth</td><td><span>21 November 1995</span></td></tr></tbody></table></div>"
                  },
                  "extension": [
                    {
                      "url": "http://hl7.org/fhir/us/core/StructureDefinition/us-core-race",
                      "extension": [
                        {
                          "url": "ombCategory",
                          "valueCoding": {
                            "system": "urn:oid:2.16.840.1.113883.6.238",
                            "code": "2106-3",
                            "display": "White"
                          }
                        }
                      ]
                    },
                    {
                      "url": "http://hl7.org/fhir/us/core/StructureDefinition/us-core-ethnicity",
                      "extension": [
                        {
                          "url": "ombCategory",
                          "valueCoding": {
                            "system": "urn:oid:2.16.840.1.113883.6.238",
                            "code": "2186-5",
                            "display": "Not Hispanic or Latino"
                          }
                        }
                      ]
                    }
                  ],
                  "identifier": [
                    {
                      "use": "usual",
                      "type": {
                        "coding": [
                          {
                            "system": "http://terminology.hl7.org/CodeSystem/v2-0203",
                            "code": "MR",
                            "display": "Medical Record Number"
                          }
                        ]
                      },
                      "system": "http://hospital.smarthealthit.org",
                      "value": "9999999911"
                    }
                  ],
                  "name": [
                    {
                      "family": "Jones",
                      "given": [
                        "Louise"
                      ]
                    }
                  ],
                  "gender": "female",
                  "birthDate": "1995-11-21"
                }
              },
              {
                "fullUrl": "e6178a0d-40d9-4b85-9651-8b119acffc96",
                "resource": {
                  "resourceType": "List",
                  "id": "e6178a0d-40d9-4b85-9651-8b119acffc96",
                  "title": "initial-population",
                  "entry": [
                    {
                      "item": {
                        "reference": "#Encounter/numer-EXM349-FHIR3-2/_history/1"
                      }
                    },
                    {
                      "item": {
                        "reference": "#Patient/numer-EXM349-FHIR3/_history/1"
                      }
                    }
                  ]
                }
              }
            ]
          }
        ],
        "status": "complete",
        "type": "individual",
        "measure": {
          "reference": "Measure/measure-EXM349-FHIR3-2.9.000"
        },
        "patient": {
          "reference": "Patient/numer-EXM349-FHIR3"
        },
        "period": {
          "start": "2019-01-01T00:00:00-07:00",
          "end": "2019-12-31T00:00:00-07:00"
        },
        "group": [
          {
            "identifier": {
              "value": "group-1"
            },
            "population": [
              {
                "identifier": {
                  "value": "initial-population-identifier"
                },
                "code": {
                  "coding": [
                    {
                      "system": "http://terminology.hl7.org/CodeSystem/measure-population",
                      "code": "initial-population",
                      "display": "Initial Population"
                    }
                  ]
                },
                "count": 1
              },
              {
                "identifier": {
                  "value": "numerator-identifier"
                },
                "code": {
                  "coding": [
                    {
                      "system": "http://terminology.hl7.org/CodeSystem/measure-population",
                      "code": "numerator",
                      "display": "Numerator"
                    }
                  ]
                },
                "count": 1
              },
              {
                "identifier": {
                  "value": "denominator-identifier"
                },
                "code": {
                  "coding": [
                    {
                      "system": "http://terminology.hl7.org/CodeSystem/measure-population",
                      "code": "denominator",
                      "display": "Denominator"
                    }
                  ]
                },
                "count": 1
              },
              {
                "identifier": {
                  "value": "denominator-exclusions-identifier"
                },
                "code": {
                  "coding": [
                    {
                      "system": "http://terminology.hl7.org/CodeSystem/measure-population",
                      "code": "denominator-exclusion",
                      "display": "Denominator Exclusion"
                    }
                  ]
                },
                "count": 0
              }
            ],
            "measureScore": 1.0
          }
        ],
        "evaluatedResources": {
          "reference": "#b1b72ea5-3e10-43fc-965c-07368ee754db"
        }
      },
      "request": {
        "method": "PUT",
        "url": "MeasureReport/measurereport-numer-EXM349-FHIR3"
      }
    },
    {
      "resource": {
        "resourceType": "Measure",
        "id": "measure-EXM349-FHIR3-2.9.000",
        "meta": {
          "versionId": "2",
          "lastUpdated": "2019-12-13T06:15:57.263+00:00",
          "profile": [
            "http://hl7.org/fhir/us/cqfmeasures/StructureDefinition/proportion-measure-cqfm"
          ]
        },
        "text": {
          "status": "generated",
          "div": "<div xmlns=\"http://www.w3.org/1999/xhtml\"><table style=\"width: 60%; border-bottom: none;\" class=\"header_table\">      <!-- <tr th:if=\"${resource.hasId()}\" style=\"vertical-align: top;\"><th style=\"background-color:#656565; width:20%\" scope=\"row\"><span class=\"td_label\">Id: </span></th><td style=\"width:80%\" colspan=\"3\"  th:narrative=\"${resource.id}\"></td></tr> --><tr style=\"vertical-align: top;\"><td scope=\"row\" style=\"background-color:#656565; width:20%\"><span class=\"td_label\">Measure Title</span></td><td colspan=\"1\" style=\"width:60%\"><h1 style=\"font-size:10px\">HIV Screening</h1></td><td scope=\"row\" style=\"background-color:#656565; width:10%\"><span class=\"td_label\">Measure ID</span></td><td colspan=\"1\" style=\"width:10%\"><h1 style=\"font-size:10px\">EXM349</h1></td></tr>      <!-- <th:block th:each=\"ident, iter : ${resource.identifier}\"><tr th:if=\"${ident.type.coding[0].code == 'CMS'}\" style=\"vertical-align: top;\"><td style=\"background-color:#656565; width:20%\" scope=\"row\"><span class=\"td_label\">eCQM Identifier (Measure Authoring Tool)</span></td><td style=\"width:30%\" th:narrative=\"${ident.value}\"></td><td style=\"background-color:#656565; width:20%\" scope=\"row\"><span class=\"td_label\">eCQM Version number</span></td><td style=\"width:30%\" th:narrative=\"${resource.version}\"></td></tr></th:block><th:block th:each=\"ident, iter : ${resource.identifier}\"><tr th:if=\"${ident.type.coding[0].code == 'NQF'}\" style=\"vertical-align: top;\"><td style=\"background-color:#656565; width:20%\" scope=\"row\"><span class=\"td_label\">NQF Number</span></td><td style=\"width:30%\" th:narrative=\"${ident.value}\"></td><td style=\"background-color:#656565; width:20%\" scope=\"row\"><span class=\"td_label\">GUID</span></td><td style=\"width:30%\" th:narrative=\"${resource.url}\"></td></tr></th:block> --><tr style=\"vertical-align: top;\"><td scope=\"row\" style=\"background-color:#656565; width:20%\"><span class=\"td_label\">Description</span></td><td colspan=\"3\" style=\"width:80%\"><div style=\"width:660px;overflow-x:hidden;overflow-y:auto\"><pre><p>Percentage of patients aged 15-65 at the start of the measurement period who were between 15-65 years old when tested for HIV</p>\n</pre>\n                </div>\n            </td>\n        </tr>\n        <tr>\n            <td scope=\"row\" style=\"background-color:#656565; width:20%\"><span class=\"td_label\">Measurement Period</span></td>\n            <td colspan=\"3\" style=\"width:80%\">January 1 - December 31</td>\n        </tr>\n              <!-- <tr>\n            <td style=\"background-color:#656565; width:20%\" scope=\"row\"><span class=\"td_label\">Measure Steward</span></td>\n            <td style=\"width:80%\" colspan=\"3\" th:narrative=\"${resource.publisher}\"></td>\n        </tr>\n        <tr>\n            <td style=\"background-color:#656565; width:20%\" scope=\"row\"><span class=\"td_label\">Measure Developer</span></td>\n            <td style=\"width:80%\" colspan=\"3\" th:narrative=\"${resource.publisher}\"></td>\n        </tr> -->\n              <!-- <tr th:if=\"${resource.hasDisclaimer()}\">\n            <td style=\"background-color:#656565; width:20%\" scope=\"row\"><span class=\"td_label\">Disclaimer</span></td>\n            <td style=\"width:80%\" colspan=\"3\">\n                <div style=\"width:660px;overflow-x:hidden;overflow-y:auto\">\n                    <pre th:text=\"${resource.disclaimer}\"></pre>\n                </div>\n            </td>\n        </tr> -->\n        <tr>\n            <td scope=\"row\" style=\"background-color:#656565; width:20%\"><span class=\"td_label\">Copyright and Disclaimer Notice</span></td>\n            <td colspan=\"3\" style=\"width:80%\">\n                <div style=\"width:660px;overflow-x:hidden;overflow-y:auto\">\n                    <pre>The performance Measure is not a clinical guideline and does not establish a standard of medical care, and has not been tested for all potential applications. THE MEASURE AND SPECIFICATIONS ARE PROVIDED \"AS IS\" WITHOUT WARRANTY OF ANY KIND.\n \nDue to technical limitations, registered trademarks are indicated by (R) or [R] and unregistered trademarks are indicated by (TM) or [TM].</pre>\n                    <br/>\n                    <div>This Physician Performance Measure (Measure) and related data specifications were developed by the National Committee for Quality Assurance (NCQA). NCQA is not responsible for any use of the Measure. NCQA makes no representations, warranties, or endorsement about the quality of any organization or physician that uses or reports performance measures and NCQA has no liability to anyone who relies on such measures or specifications. NCQA holds a copyright in the Measure. The Measure can be reproduced and distributed, without modification, for noncommercial purposes (eg, use by healthcare providers in connection with their practices) without obtaining approval from NCQA. Commercial use is defined as the sale, licensing, or distribution of the Measure for commercial gain, or incorporation of the Measure into a product or service that is sold, licensed or distributed for commercial gain. All commercial uses or requests for modification must be approved by NCQA and are subject to a license at the discretion of NCQA. (C) 2012-2017 National Committee for Quality Assurance. All Rights Reserved. %26lt;br%26gt; Limited proprietary coding is contained in the Measure specifications for user convenience. Users of proprietary code sets should obtain all necessary licenses from the owners of the code sets. NCQA disclaims all liability for use or accuracy of any third party codes contained in the specifications. %26lt;br%26gt; CPT(R) contained in the Measure specifications is copyright 2004-2017 American Medical Association. LOINC(R) copyright 2004-2017 Regenstrief Institute, Inc. This material contains SNOMED Clinical Terms(R) (SNOMED CT[R] ) copyright 2004-2017 International Health Terminology Standards Development Organisation. ICD-10 copyright 2017 World Health Organization. All Rights Reserved.</div>\n                </div>\n            </td>\n        </tr>\n        <tr>\n            <td scope=\"row\" style=\"background-color:#656565; width:20%\"><span class=\"td_label\">Clinical Recommendation Statement</span></td>\n            <td colspan=\"3\" style=\"width:80%\">\n                <div style=\"width:660px;overflow-x:hidden;overflow-y:auto\"><p>The US Preventive Services Task Force recommends that clinicians screen for HIV infection in adolescents and adults aged 15 to 65 years. Younger adolescents and older adults who are at increased risk should also be screened (A Recommendation) (Moyer, 2013).</p>\n<p>Since 2006, the CDC has recommended routine opt-out HIV screening (i.e., patient is notified that testing will be performed unless the patient declines) in healthcare facilities of adolescents and adults 13-64 years of age and HIV diagnostic testing of adolescents and adults with clinical signs or symptoms consistent with HIV infection (Centers for Disease Control and Prevention, 2006).</p>\n</div>\n            </td>\n        </tr>\n        \n            <tr style=\"vertical-align: top;\">\n                <td rowspan=\"14\" scope=\"row\" style=\"background-color:#656565; width:20%\"><span class=\"td_label\">References</span></td>\n                <td colspan=\"3\" style=\"width:80%\">\n                    <div style=\"width:660px;overflow-x:hidden;overflow-y:auto\">\n                        <pre>American Diabetes Association. (2018). 9. Cardiovascular disease and risk management: Standards of medical care in diabetes 2018. Diabetes Care, 41(Suppl. 1), S86-S104.</pre>\n                    </div>\n                </td>\n            </tr>\n        \n        \n            <tr style=\"vertical-align: top;\">\n                \n                <td colspan=\"3\" style=\"width:80%\">\n                    <div style=\"width:660px;overflow-x:hidden;overflow-y:auto\">\n                        <pre>Benjamin, E. J., Blaha, M. J., Chiuve, S. E., et al. (2017). Heart disease and stroke statistics-2017 update: A report from the American Heart Association. Circulation, 135(10), e146-e603.doi: 10.1161/CIR.0000000000000485</pre>\n                    </div>\n                </td>\n            </tr>\n        \n        \n            <tr style=\"vertical-align: top;\">\n                \n                <td colspan=\"3\" style=\"width:80%\">\n                    <div style=\"width:660px;overflow-x:hidden;overflow-y:auto\">\n                        <pre>Centers for Disease Control and Prevention. (2012). Vital signs: Getting blood pressure under control. Retrieved from https://www.cdc.gov/vitalsigns/hypertension/index.html</pre>\n                    </div>\n                </td>\n            </tr>\n        \n        \n            <tr style=\"vertical-align: top;\">\n                \n                <td colspan=\"3\" style=\"width:80%\">\n                    <div style=\"width:660px;overflow-x:hidden;overflow-y:auto\">\n                        <pre>Centers for Disease Control and Prevention. Division for Heart Disease and Stroke Prevention. (2016). High blood pressure fact sheet. Retrieved from https://www.cdc.gov/dhdsp/data_statistics/fact_sheets/fs_bloodpressure.htmhttps://www.cdc.gov/dhdsp/data_statistics/fact_sheets/fs_bloodpressure.htm. </pre>\n                    </div>\n                </td>\n            </tr>\n        \n        \n            <tr style=\"vertical-align: top;\">\n                \n                <td colspan=\"3\" style=\"width:80%\">\n                    <div style=\"width:660px;overflow-x:hidden;overflow-y:auto\">\n                        <pre>Centers for Disease Control and Prevention, National Center for Health Statistics. (2015). Underlying Cause of Death 1999-2013 on CDC WONDER Online Database. Data are from the Multiple Cause of Death Files, 1999-2013, as compiled from data provided by the 57 vital statistics jurisdictions through the Vital Statistics Cooperative Program. Retrieved from http://wonder.cdc.gov/ucd-icd10.html</pre>\n                    </div>\n                </td>\n            </tr>\n        \n        \n            <tr style=\"vertical-align: top;\">\n                \n                <td colspan=\"3\" style=\"width:80%\">\n                    <div style=\"width:660px;overflow-x:hidden;overflow-y:auto\">\n                        <pre>Crim, M. T., Yoon, S. S., Ortiz, E., et al. (2012). National surveillance definitions for hypertension prevalence and control among adults. Circulation: Cardiovascular Quality and Outcomes. 2012, ;5(3), :343-351. doi: 10.1161/ CIRCOUTCOMES.111.963439.</pre>\n                    </div>\n                </td>\n            </tr>\n        \n        \n            <tr style=\"vertical-align: top;\">\n                \n                <td colspan=\"3\" style=\"width:80%\">\n                    <div style=\"width:660px;overflow-x:hidden;overflow-y:auto\">\n                        <pre>James, P. A., Oparil, S., Carter, B. L., et al (2014). 2014 evidence-based guideline for the management of high blood pressure in adults: Report from the panel members appointed to the Eighth Joint National Committee (JNC8). JAMA. 311(5), 507-520. doi:10.1001/jama.2013.284427</pre>\n                    </div>\n                </td>\n            </tr>\n        \n        \n            <tr style=\"vertical-align: top;\">\n                \n                <td colspan=\"3\" style=\"width:80%\">\n                    <div style=\"width:660px;overflow-x:hidden;overflow-y:auto\">\n                        <pre>Moran, A. E., Odden, M. C., Thanataveerat, A., et al.Tzong KY, Rasmussen PW, Guzman D, Williams L, Bibbins-Domingo K, Coxson PG, Goldman L. (2015). Cost-effectiveness of hypertension therapy according to 2014 guidelines. [published correction appears in N Engl J. Med. 2015;372:1677]. New England Journal of Medicine,. 2015 ;372, :447-455. doi:  10.1056/NEJMsa1406751. [published correction appears on page 1677] \nFarley TA, Dalal MA, Mostashari F, Frieden TR. Deaths preventable in the US by improvements in the use of clinical preventive services. Am J Prev Med. 2010;38:600-9.</pre>\n                    </div>\n                </td>\n            </tr>\n        \n        \n            <tr style=\"vertical-align: top;\">\n                \n                <td colspan=\"3\" style=\"width:80%\">\n                    <div style=\"width:660px;overflow-x:hidden;overflow-y:auto\">\n                        <pre>Patel, S. A., Winkel, M., Ali, M. K., et al. (2015). Cardiovascular mortality associated with 5 leading risk factors: National and state preventable fractions estimated from survey data. Annals of Internal Medicine, 163(4), :245253. doi: 10.7326/M14-1753</pre>\n                    </div>\n                </td>\n            </tr>\n        \n        \n            <tr style=\"vertical-align: top;\">\n                \n                <td colspan=\"3\" style=\"width:80%\">\n                    <div style=\"width:660px;overflow-x:hidden;overflow-y:auto\">\n                        <pre>Qaseem, A., Wilt, T. J., Rich, R., et al. (2017). Pharmacologic treatment of hypertension in adults aged 60 years or older to higher versus lower blood pressure targets: A clinical practice guideline from the American College of Physicians and the American Academy of Family Physicians. Annals of Internal Medicine, 166(6), 430-437.</pre>\n                    </div>\n                </td>\n            </tr>\n        \n        \n            <tr style=\"vertical-align: top;\">\n                \n                <td colspan=\"3\" style=\"width:80%\">\n                    <div style=\"width:660px;overflow-x:hidden;overflow-y:auto\">\n                        <pre>SPRINT Research Group,; Wright, J. T., Jr., Williamson,  J. D., et al. (2015). A randomized trial of intensive versus standard blood-pressure control. New England Journal of Medicine, 373(22), 21032116.</pre>\n                    </div>\n                </td>\n            </tr>\n        \n        \n            <tr style=\"vertical-align: top;\">\n                \n                <td colspan=\"3\" style=\"width:80%\">\n                    <div style=\"width:660px;overflow-x:hidden;overflow-y:auto\">\n                        <pre>U.S. Preventive Services Task Force. (2015). Screening for high blood pressure in adults: U.S. Preventive Services Task Force recommendation statement. Annals of Internal Medicine, 163(10), 778-787.</pre>\n                    </div>\n                </td>\n            </tr>\n        \n        \n            <tr style=\"vertical-align: top;\">\n                \n                <td colspan=\"3\" style=\"width:80%\">\n                    <div style=\"width:660px;overflow-x:hidden;overflow-y:auto\">\n                        <pre>Whelton, P. K., Carey, R. M., Aronow, W. S., et al. (2017). Guideline for the prevention, detection, evaluation, and management of high blood pressure in adults: A report of the American College of Cardiology/American Heart Association Task Force on Clinical Practice Guidelines. Journal of the American College of Cardiology, . https://doi.org/10.1161/HYP.0000000000000065</pre>\n                    </div>\n                </td>\n            </tr>\n        \n        \n            <tr style=\"vertical-align: top;\">\n                \n                <td colspan=\"3\" style=\"width:80%\">\n                    <div style=\"width:660px;overflow-x:hidden;overflow-y:auto\">\n                        <pre>Yoon, S. S., Fryar, C. D., %26amp; Carroll, M. D. (2015). Hypertension prevalence and control among adults: United States, 2011-2014. NCHS Data Brief No. 220. Hyattsville, MD: National Center for Health Statistics.</pre>\n                    </div>\n                </td>\n            </tr>\n        \n        <tr>\n            <td colspan=\"4\" scope=\"row\" style=\"background-color:#656565; width:100%\"><span class=\"td_label\">Characteristics</span></td>\n        </tr>\n        <tr>\n            <td scope=\"row\" style=\"width:20%\"><span>Scoring</span></td>\n            <td colspan=\"3\" style=\"width:80%\">Proportion</td>\n        </tr>\n              <!-- <tr th:if=\"${resource.hasCompositeScoring()}\">\n            <td style=\"width:20%\" scope=\"row\"><span class=\"td_label\">Composite Scoring</span></td>\n            <td style=\"width:80%\" colspan=\"3\" th:narrative=\"${resource.compositeScoring.getText().substring(0, 1).toUpperCase() + resource.compositeScoring.getText().substring(1)}\"></td>\n        </tr> -->\n        \n            <tr style=\"vertical-align: top;\">\n                <td rowspan=\"1\" scope=\"row\" style=\"width:20%\"><span>Type</span></td>\n                <td colspan=\"3\" style=\"width:80%\">Process</td>\n            </tr>\n        \n              <!-- <tr th:if=\"${resource.hasStatus()}\" style=\"vertical-align: top;\">\n            <td style=\"background-color:#656565; width:20%\" scope=\"row\"><span class=\"td_label\">Status</span></td>\n            <td style=\"width:80%\" colspan=\"3\" th:narrative=\"${resource.status.toString().substring(0, 1).toUpperCase() + resource.status.toString().substring(1).toLowerCase()}\"></td>\n        </tr>\n        <tr th:if=\"${resource.hasPurpose()}\" style=\"vertical-align: top;\">\n            <td style=\"background-color:#656565; width:20%\" scope=\"row\"><span class=\"td_label\">Purpose</span></td>\n            <td style=\"width:80%\" colspan=\"3\" th:narrative=\"${resource.purpose}\"></td>\n        </tr>\n        <tr th:if=\"${resource.hasUsage()}\" style=\"vertical-align: top;\" >\n            <td style=\"background-color:#656565; width:20%\" scope=\"row\"><span class=\"td_label\">Usage</span></td>\n            <td style=\"width:80%\" colspan=\"3\" th:narrative=\"${resource.usage}\"></td>\n        </tr>\n        <th:block th:each=\"context, iter : ${resource.useContext}\" >\n            <tr style=\"vertical-align: top;\">\n                <td th:if=\"${iter.index == 0}\" th:rowspan=\"${iter.size}\" style=\"background-color:#656565; width:20%\" scope=\"row\"><span class=\"td_label\">Use Context</span></td>\n                <td style=\"width:80%\" colspan=\"3\" th:narrative=\"${context}\"></td>\n            </tr>\n        </th:block>\n        <th:block th:each=\"topics, iter : ${resource.topic}\" >\n            <tr style=\"vertical-align: top;\">\n                <td th:if=\"${iter.index == 0}\" th:rowspan=\"${iter.size}\" style=\"background-color:#656565; width:20%\" scope=\"row\"><span class=\"td_label\">Topic</span></td>\n                <td style=\"width:80%\" colspan=\"3\" th:narrative=\"${topics}\"></td>\n            </tr>\n        </th:block>\n        <th:block th:each=\"cont, iter : ${resource.contributor}\" >\n            <tr style=\"vertical-align: top;\">\n                <td th:if=\"${iter.index == 0}\" th:rowspan=\"${iter.size}\" style=\"background-color:#656565; width:20%\" scope=\"row\"><span class=\"td_label\">Contributor</span></td>\n                <td style=\"width:80%\" colspan=\"3\">\n                    <b><span th:narrative=\"${cont.type.toCode()}\"></span>: </b><span th:narrative=\"${cont.name}\"></span>\n                </td>\n            </tr>\n        </th:block> -->\n              <!-- <th:block th:each=\"lib, iter : ${resource.library}\" >\n            <tr style=\"vertical-align: top;\">\n                <td th:if=\"${iter.index == 0}\" th:rowspan=\"${iter.size}\" style=\"background-color:#656565; width:20%\" scope=\"row\"><span class=\"td_label\">Library</span></td>\n                <td style=\"width:80%\" colspan=\"3\">\n                    <p th:if=\"${lib.hasIdentifier()}\"><b>identifier: </b><span th:narrative=\"${lib.identifier}\"></span></p>\n                    <p th:if=\"${lib.hasReference()}\"><b>reference: </b><span th:narrative=\"${lib.reference}\"></span></p>\n                    <p th:if=\"${lib.hasDisplay()}\"><b>display: </b><span th:narrative=\"${lib.display}\"></span></p>\n                </td>\n            </tr>\n        </th:block> -->\n        \n              <!-- <tr th:if=\"${resource.hasRateAggregation()}\" >\n            <td style=\"background-color:#656565; width:20%\" scope=\"row\"><span class=\"td_label\">Rate Aggregation</span></td>\n            <td style=\"width:80%\" colspan=\"3\">\n                <div style=\"width:660px;overflow-x:hidden;overflow-y:auto\">\n                    <pre th:text=\"${resource.rateAggregation}\"></pre>\n                </div>\n            </td>\n        </tr>\n        <tr th:if=\"${resource.hasRationale()}\">\n            <td style=\"background-color:#656565; width:20%\" scope=\"row\"><span class=\"td_label\">Rationale</span></td>\n            <td style=\"width:80%\" colspan=\"3\">\n                <div style=\"width:660px;overflow-x:hidden;overflow-y:auto\">\n                    <pre th:text=\"${resource.rationale}\"></pre>\n                </div>\n            </td>\n        </tr> -->\n        <tr>\n            <td scope=\"row\" style=\"width:20%\"><span>Improvement Notation</span></td>\n            <td colspan=\"3\" style=\"width:80%\">A higher rate indicates better performance.</td>\n            \n        </tr>\n        <tr>\n            <td scope=\"row\" style=\"width:20%\"><span>Guidance</span></td>\n            <td colspan=\"3\" style=\"width:80%\">\n                <div style=\"width:660px;overflow-x:hidden;overflow-y:auto\"><p>This measure evaluates the proportion of patients aged 15 to 65 at the start of the measurement period who have documentation of having received an HIV test at least once on or after their 15th birthday and before their 66th birthday. In order to satisfy the measure, the reporting provider must have documentation of the administration of the laboratory test present in the patient's medical record. In cases where the HIV test was performed elsewhere, providers cannot rely on patient attestation or self-report to meet the measure requirements, as previous research has shown that patient self-report is an unreliable indicator of previous HIV testing history. Rather, providers must request documentation of those test results. If such documentation is not available, the patient should be considered still eligible for HIV screening. If such documentation is available, but cannot be provided in a standardized, structured format (such that the lab test and results can be readily incorporated as structured data within the EHR), providers should enter the information into their EHR as a laboratory test in a manner consistent with the EHR in use. If the specific Human Immunodeficiency Virus (HIV) Laboratory Test LOINC code of the test is not known, the entry should use the more generic code LOINC panel code [75622-1].</p>\n</div>\n            </td>\n        </tr>\n        <tr>\n            <td colspan=\"4\" scope=\"row\" style=\"background-color:#656565; width:100%\"><span class=\"td_label\">Definitions</span></td>\n        </tr>\n        \n        \n              <!-- <th:block th:each=\"groups, iter : ${resource.uniquePopulationGroup}\" >\n            <tr style=\"vertical-align: top;\">\n                <td style=\"background-color:#656565; width:20%\" scope=\"row\"><span class=\"td_label\" th:text=\"${groups.identifier.value}\"></span></td>\n                <td style=\"width:80%\" colspan=\"3\">\n                    <div style=\"width:660px;overflow-x:hidden;overflow-y:auto\">\n                        <pre th:text=\"${pops.description}\"></pre>\n                    </div>\n                </td>\n            </tr>\n        </th:block> -->\n    </table>\n    <table style=\"width: 60%; border-top: none; border-bottom: none\" class=\"header_table\">\n        \n    </table>\n    <table style=\"width: 60%; border-top: none;\" class=\"header_table\">\n              <!-- <th:block th:each=\"supples, iter : ${resource.supplementalData}\">\n            <tr>\n                <th th:if=\"${iter.index == 0}\" th:rowspan=\"${iter.size}\" scope=\"row\"><b>Supplemental Data:</b></th>\n                <td style=\"width:80%\" colspan=\"3\" >\n                    <p style=\"margin-bottom: 5px;\" th:narrative=\"${supples.identifier}\"></p>\n                    <p style=\"margin-bottom: 5px;\" th:each=\"uses : ${supples.usage}\">\n                        <b>usage: </b>\n                        <span th:narrative=\"${uses}\"></span>\n                    </p>\n                    <p style=\"margin-bottom: 5px;\" th:if=\"${supples.hasCriteria()}\">\n                        <b>criteria: </b>\n                        <span th:narrative=\"${supples.criteria}\"></span>\n                    </p>\n                    <p style=\"margin-bottom: 5px;\" th:if=\"${supples.hasPath()}\">\n                        <b>path: </b>\n                        <span th:narrative=\"${supples.path}\"></span>\n                    </p>\n                </td>\n            </tr>\n        </th:block> -->\n              <!-- <th:block th:each=\"param, iter : ${resource.parameter}\">\n            <tr style=\"vertical-align: top;\">\n                <th th:if=\"${iter.index == 0}\" th:rowspan=\"${iter.size}\" scope=\"row\"><b>Parameter: </b></th>\n                <td style=\"width:80%\" colspan=\"3\" >\n                    <span th:if=\"${param.hasName()}\">\n                        <b>name: </b>\n                        <span th:narrative=\"${param.name}\"></span>\n                        <br/>\n                    </span>\n                    <b>use: </b>\n                    <span th:narrative=\"${param.use.toCode()}\"></span>\n                    <br/>\n                    <span th:if=\"${param.hasMin()}\">\n                        <b>minimum cardinality: </b>\n                        <span th:narrative=\"${param.min}\"></span>\n                        <br/>\n                    </span>\n                    <span th:if=\"${param.hasMax()}\">\n                        <b>maximum cardinality: </b>\n                        <span th:narrative=\"${param.max}\"></span>\n                        <br/>\n                    </span>\n                    <b>type: </b>\n                    <span th:narrative=\"${param.type}\"></span>\n                    <br/>\n                    <span th:if=\"${param.hasDocumentation()}\">\n                        <b>documentation: </b>\n                        <span th:narrative=\"${param.documentation}\"></span>\n                        <br/>\n                    </span>\n                    <span th:if=\"${param.hasProfile()}\">\n                        <b>profile: </b>\n                        <span th:narrative=\"${param.profile}\"></span>\n                        <br/>\n                    </span>\n                    <p style=\"margin-bottom: 5px;\"></p>\n                </td>\n            </tr>\n        </th:block> -->\n              <!-- <th:block th:each=\"dataReq, iter : ${resource.dataRequirement}\">\n            <tr style=\"vertical-align: top;\">\n                    <th th:if=\"${iter.index == 0}\" th:rowspan=\"${iter.size}\" scope=\"row\" ><b>Data Requirements: </b></th>\n                    <td style=\"width:80%\" colspan=\"3\" th:narrative=\"${dataReq}\"></td>\n            </tr>\n        </th:block> -->\n    </table>\n  <h2><a name=\"toc\">Table of Contents</a></h2>\n  <ul style=\"padding-left: 50px;\">\n   <li><a href=\"#d1e405\">Population Criteria</a></li>\n   <li><a href=\"#d1e649\">Definitions</a></li>\n   <li><a href=\"#d1e650\">Functions</a></li>\n   <li><a href=\"#d1e555\">Terminology</a></li>\n   <li><a href=\"#d1e647\">Data Criteria (QDM Data Elements)</a></li>\n   <li><a href=\"#d1e767\">Supplemental Data Elements</a></li>\n   <li><a href=\"#d1e879\">Risk Adjustment Variables</a></li>\n  </ul>\n  <div style=\"float:left; background:teal; height:3px; width:80%\"></div>\n  \n    <pre><br/></pre>\n    <h3><a name=\"d1e405\" href=\"#toc\">Population Criteria</a></h3>\n    <div>\n    <ul style=\"list-style:none;padding-left:10px;\">\n        <li style=\"list-style:none;padding-left:0px;\" class=\"list-unstyled\">\n        <div class=\"treeview hover p-l-10\">\n        <ul class=\"list-unstyled\">\n        <li class=\"list-unstyled\"><input id=\"Initial Population\" type=\"checkbox\"/><label for=\"Initial Population\" class=\"list-header\"><strong>Initial Population</strong></label>\n            <ul class=\"code\">\n            <li class=\"list-unstyled\">\n            <div class=\"treeview hover p-l-10\">\n            <ul>\n                <li style=\"padding-left: 0px;\">\n                <div>\n                <pre class=\"cql-definition-body\"> Global.\"CalendarAgeInYearsAt\"(FHIRHelpers.ToDate(Patient.birthDate), start of \"Measurement Period\")%26gt;= 15\r\n\t\tand Global.\"CalendarAgeInYearsAt\"(FHIRHelpers.ToDate(Patient.birthDate), start of \"Measurement Period\")%26lt; 66\r\n\t\tand exists \"Qualifying Encounters\"</pre>\n                </div></li>\n            </ul>%26nbsp;\n            </div></li>\n            </ul></li>\n        </ul>\n        </div>\n        <div class=\"treeview hover p-l-10\">\n        <ul class=\"list-unstyled\">\n        <li class=\"list-unstyled\"><input id=\"Numerator\" type=\"checkbox\"/><label for=\"Numerator\" class=\"list-header\"><strong>Numerator</strong></label>\n            <ul class=\"code\">\n            <li class=\"list-unstyled\">\n            <div class=\"treeview hover p-l-10\">\n            <ul>\n                <li style=\"padding-left: 0px;\">\n                <div>\n                <pre class=\"cql-definition-body\">\texists ( \"HIV Test Performed\" )</pre>\n                </div></li>\n            </ul>%26nbsp;\n            </div></li>\n            </ul></li>\n        </ul>\n        </div>\n        <div class=\"treeview hover p-l-10\">\n        <ul class=\"list-unstyled\">\n        <li class=\"list-unstyled\"><input id=\"Denominator\" type=\"checkbox\"/><label for=\"Denominator\" class=\"list-header\"><strong>Denominator</strong></label>\n            <ul class=\"code\">\n            <li class=\"list-unstyled\">\n            <div class=\"treeview hover p-l-10\">\n            <ul>\n                <li style=\"padding-left: 0px;\">\n                <div>\n                <pre class=\"cql-definition-body\">\t\"Initial Population\"</pre>\n                </div></li>\n            </ul>%26nbsp;\n            </div></li>\n            </ul></li>\n        </ul>\n        </div>\n        <div class=\"treeview hover p-l-10\">\n        <ul class=\"list-unstyled\">\n        <li class=\"list-unstyled\"><input id=\"Denominator Exclusion\" type=\"checkbox\"/><label for=\"Denominator Exclusion\" class=\"list-header\"><strong>Denominator Exclusion</strong></label>\n            <ul class=\"code\">\n            <li class=\"list-unstyled\">\n            <div class=\"treeview hover p-l-10\">\n            <ul>\n                <li style=\"padding-left: 0px;\">\n                <div>\n                <pre class=\"cql-definition-body\">\texists ( [Condition: code in \"Conditions Due To Human Immunodeficiency Virus (HIV)\"] HIVConditions\r\n\t\t\twhere HIVConditions.clinicalStatus = 'active'\r\n\t\t\tand HIVConditions.verificationStatus = 'confirmed'\r\n\t\t\tand (HIVConditions.onset as dateTime) before start of \"Measurement Period\"\r\n\t)</pre>\n                </div></li>\n            </ul>%26nbsp;\n            </div></li>\n            </ul></li>\n        </ul>\n        </div></li>\n    </ul>\n    </div>\n\n  <h3><a name=\"d1e649\" href=\"#toc\">Definitions</a></h3>\n  <div>\n   <ul style=\"list-style:none;padding-left: 10px;\">\n    <li style=\"list-style:none;\" class=\"list-unstyled\">\n     <div>\n      <ul style=\"list-style:none;padding-left:0;\" class=\"list-unstyled\">\n       <li class=\"list-unstyled\">\n        <div class=\"treeview hover p-l-10\">\n         <input id=\"Denominator\" type=\"checkbox\"/>\n         <label for=\"Denominator\" class=\"list-header\"><strong>Denominator</strong></label>\n         <ul style=\"margin-right: 20%; opacity: 1;\" class=\"code\">\n          <li class=\"list-unstyled\">\n           <div>\n            <ul style=\"padding-left: 0px;\">\n             <li style=\"padding-left: 0px;\" class=\"list-unstyled\">\n              <div>\n               <pre class=\"cql-definition-body\">\t\"Initial Population\"</pre>\n              </div></li>\n            </ul>%26nbsp;\n           </div></li>\n         </ul>\n        </div></li>\n      </ul>\n     </div></li>\n   </ul>\n  </div>\n  <div>\n   <ul style=\"list-style:none;padding-left: 10px;\">\n    <li style=\"list-style:none;\" class=\"list-unstyled\">\n     <div>\n      <ul style=\"list-style:none;padding-left:0;\" class=\"list-unstyled\">\n       <li class=\"list-unstyled\">\n        <div class=\"treeview hover p-l-10\">\n         <input id=\"Denominator Exclusion\" type=\"checkbox\"/>\n         <label for=\"Denominator Exclusion\" class=\"list-header\"><strong>Denominator Exclusion</strong></label>\n         <ul style=\"margin-right: 20%; opacity: 1;\" class=\"code\">\n          <li class=\"list-unstyled\">\n           <div>\n            <ul style=\"padding-left: 0px;\">\n             <li style=\"padding-left: 0px;\" class=\"list-unstyled\">\n              <div>\n               <pre class=\"cql-definition-body\">\texists ( [Condition: code in \"Conditions Due To Human Immunodeficiency Virus (HIV)\"] HIVConditions\r\n\t\t\twhere HIVConditions.clinicalStatus = 'active'\r\n\t\t\tand HIVConditions.verificationStatus = 'confirmed'\r\n\t\t\tand (HIVConditions.onset as dateTime) before start of \"Measurement Period\"\r\n\t)</pre>\n              </div></li>\n            </ul>%26nbsp;\n           </div></li>\n         </ul>\n        </div></li>\n      </ul>\n     </div></li>\n   </ul>\n  </div>\n  <div>\n   <ul style=\"list-style:none;padding-left: 10px;\">\n    <li style=\"list-style:none;\" class=\"list-unstyled\">\n     <div>\n      <ul style=\"list-style:none;padding-left:0;\" class=\"list-unstyled\">\n       <li class=\"list-unstyled\">\n        <div class=\"treeview hover p-l-10\">\n         <input id=\"HIV Test Performed\" type=\"checkbox\"/>\n         <label for=\"HIV Test Performed\" class=\"list-header\"><strong>HIV Test Performed</strong></label>\n         <ul style=\"margin-right: 20%; opacity: 1;\" class=\"code\">\n          <li class=\"list-unstyled\">\n           <div>\n            <ul style=\"padding-left: 0px;\">\n             <li style=\"padding-left: 0px;\" class=\"list-unstyled\">\n              <div>\n               <pre class=\"cql-definition-body\">\t( [Observation: \"Human Immunodeficiency Virus (HIV) Laboratory Test Codes (Ab and Ag)\"]\r\n\t\tunion [Observation: \"HIV 1 and 2 tests - Meaningful Use set\"] ) HIVTest\r\n\t\twhere (\r\n\t\t\t\t( Global.\"CalendarAgeInYearsAt\"(FHIRHelpers.ToDate(Patient.birthDate), HIVTest.effective as dateTime)%26gt;= 15\r\n\t\t\t \t\tor Global.\"CalendarAgeInYearsAt\"(FHIRHelpers.ToDate(Patient.birthDate), start of HIVTest.effective)%26gt;= 15)\r\n\t\t\t\t\tand  ( Global.\"CalendarAgeInYearsAt\"(FHIRHelpers.ToDate(Patient.birthDate), HIVTest.effective as dateTime)%26lt; 66 )\r\n\t\t\t\t\t\tor Global.\"CalendarAgeInYearsAt\"(FHIRHelpers.ToDate(Patient.birthDate), start of HIVTest.effective)%26lt; 66)\r\n\r\n\t\t\tand HIVTest.status in {'final', 'amended', 'corrected', 'preliminary'}\r\n\t\t\tand (\r\n\t\t\t\tHIVTest.effective starts before end of \"Measurement Period\"\r\n\t\t\t\t\tor HIVTest.effective as dateTime before end of \"Measurement Period\"\r\n\t\t\t)</pre>\n              </div></li>\n            </ul>%26nbsp;\n           </div></li>\n         </ul>\n        </div></li>\n      </ul>\n     </div></li>\n   </ul>\n  </div>\n  <div>\n   <ul style=\"list-style:none;padding-left: 10px;\">\n    <li style=\"list-style:none;\" class=\"list-unstyled\">\n     <div>\n      <ul style=\"list-style:none;padding-left:0;\" class=\"list-unstyled\">\n       <li class=\"list-unstyled\">\n        <div class=\"treeview hover p-l-10\">\n         <input id=\"Initial Population\" type=\"checkbox\"/>\n         <label for=\"Initial Population\" class=\"list-header\"><strong>Initial Population</strong></label>\n         <ul style=\"margin-right: 20%; opacity: 1;\" class=\"code\">\n          <li class=\"list-unstyled\">\n           <div>\n            <ul style=\"padding-left: 0px;\">\n             <li style=\"padding-left: 0px;\" class=\"list-unstyled\">\n              <div>\n               <pre class=\"cql-definition-body\"> Global.\"CalendarAgeInYearsAt\"(FHIRHelpers.ToDate(Patient.birthDate), start of \"Measurement Period\")%26gt;= 15\r\n\t\tand Global.\"CalendarAgeInYearsAt\"(FHIRHelpers.ToDate(Patient.birthDate), start of \"Measurement Period\")%26lt; 66\r\n\t\tand exists \"Qualifying Encounters\"</pre>\n              </div></li>\n            </ul>%26nbsp;\n           </div></li>\n         </ul>\n        </div></li>\n      </ul>\n     </div></li>\n   </ul>\n  </div>\n  <div>\n   <ul style=\"list-style:none;padding-left: 10px;\">\n    <li style=\"list-style:none;\" class=\"list-unstyled\">\n     <div>\n      <ul style=\"list-style:none;padding-left:0;\" class=\"list-unstyled\">\n       <li class=\"list-unstyled\">\n        <div class=\"treeview hover p-l-10\">\n         <input id=\"Numerator\" type=\"checkbox\"/>\n         <label for=\"Numerator\" class=\"list-header\"><strong>Numerator</strong></label>\n         <ul style=\"margin-right: 20%; opacity: 1;\" class=\"code\">\n          <li class=\"list-unstyled\">\n           <div>\n            <ul style=\"padding-left: 0px;\">\n             <li style=\"padding-left: 0px;\" class=\"list-unstyled\">\n              <div>\n               <pre class=\"cql-definition-body\">\texists ( \"HIV Test Performed\" )</pre>\n              </div></li>\n            </ul>%26nbsp;\n           </div></li>\n         </ul>\n        </div></li>\n      </ul>\n     </div></li>\n   </ul>\n  </div>\n  <div>\n   <ul style=\"list-style:none;padding-left: 10px;\">\n    <li style=\"list-style:none;\" class=\"list-unstyled\">\n     <div>\n      <ul style=\"list-style:none;padding-left:0;\" class=\"list-unstyled\">\n       <li class=\"list-unstyled\">\n        <div class=\"treeview hover p-l-10\">\n         <input id=\"Qualifying Encounters\" type=\"checkbox\"/>\n         <label for=\"Qualifying Encounters\" class=\"list-header\"><strong>Qualifying Encounters</strong></label>\n         <ul style=\"margin-right: 20%; opacity: 1;\" class=\"code\">\n          <li class=\"list-unstyled\">\n           <div>\n            <ul style=\"padding-left: 0px;\">\n             <li style=\"padding-left: 0px;\" class=\"list-unstyled\">\n              <div>\n               <pre class=\"cql-definition-body\">\t( [Encounter: \"Preventive Care Services, Initial Office Visit, 0 to 17\"]\r\n\t\tunion [Encounter: \"Preventive Care Services-Initial Office Visit, 18 and Up\"]\r\n\t\tunion [Encounter: \"Preventive Care, Established Office Visit, 0 to 17\"]\r\n\t\tunion [Encounter: \"Preventive Care Services - Established Office Visit, 18 and Up\"]\r\n\t\tunion [Encounter: \"Office Visit\"] ) ValidEncounter\r\n\t\twhere ValidEncounter.status = 'finished'\r\n\t\tand ValidEncounter.period during \"Measurement Period\"</pre>\n              </div></li>\n            </ul>%26nbsp;\n           </div></li>\n         </ul>\n        </div></li>\n      </ul>\n     </div></li>\n   </ul>\n  </div>\n  <div>\n   <ul style=\"list-style:none;padding-left: 10px;\">\n    <li style=\"list-style:none;\" class=\"list-unstyled\">\n     <div>\n      <ul style=\"list-style:none;padding-left:0;\" class=\"list-unstyled\">\n       <li class=\"list-unstyled\">\n        <div class=\"treeview hover p-l-10\">\n         <input id=\"SDE Ethnicity\" type=\"checkbox\"/>\n         <label for=\"SDE Ethnicity\" class=\"list-header\"><strong>SDE Ethnicity</strong></label>\n         <ul style=\"margin-right: 20%; opacity: 1;\" class=\"code\">\n          <li class=\"list-unstyled\">\n           <div>\n            <ul style=\"padding-left: 0px;\">\n             <li style=\"padding-left: 0px;\" class=\"list-unstyled\">\n              <div>\n               <pre class=\"cql-definition-body\">\t SDE.\"SDE Ethnicity\"</pre>\n              </div></li>\n            </ul>%26nbsp;\n           </div></li>\n         </ul>\n        </div></li>\n      </ul>\n     </div></li>\n   </ul>\n  </div>\n  <div>\n   <ul style=\"list-style:none;padding-left: 10px;\">\n    <li style=\"list-style:none;\" class=\"list-unstyled\">\n     <div>\n      <ul style=\"list-style:none;padding-left:0;\" class=\"list-unstyled\">\n       <li class=\"list-unstyled\">\n        <div class=\"treeview hover p-l-10\">\n         <input id=\"SDE Payer\" type=\"checkbox\"/>\n         <label for=\"SDE Payer\" class=\"list-header\"><strong>SDE Payer</strong></label>\n         <ul style=\"margin-right: 20%; opacity: 1;\" class=\"code\">\n          <li class=\"list-unstyled\">\n           <div>\n            <ul style=\"padding-left: 0px;\">\n             <li style=\"padding-left: 0px;\" class=\"list-unstyled\">\n              <div>\n               <pre class=\"cql-definition-body\">\tSDE.\"SDE Payer\"</pre>\n              </div></li>\n            </ul>%26nbsp;\n           </div></li>\n         </ul>\n        </div></li>\n      </ul>\n     </div></li>\n   </ul>\n  </div>\n  <div>\n   <ul style=\"list-style:none;padding-left: 10px;\">\n    <li style=\"list-style:none;\" class=\"list-unstyled\">\n     <div>\n      <ul style=\"list-style:none;padding-left:0;\" class=\"list-unstyled\">\n       <li class=\"list-unstyled\">\n        <div class=\"treeview hover p-l-10\">\n         <input id=\"SDE Race\" type=\"checkbox\"/>\n         <label for=\"SDE Race\" class=\"list-header\"><strong>SDE Race</strong></label>\n         <ul style=\"margin-right: 20%; opacity: 1;\" class=\"code\">\n          <li class=\"list-unstyled\">\n           <div>\n            <ul style=\"padding-left: 0px;\">\n             <li style=\"padding-left: 0px;\" class=\"list-unstyled\">\n              <div>\n               <pre class=\"cql-definition-body\">\tSDE.\"SDE Race\"</pre>\n              </div></li>\n            </ul>%26nbsp;\n           </div></li>\n         </ul>\n        </div></li>\n      </ul>\n     </div></li>\n   </ul>\n  </div>\n  <div>\n   <ul style=\"list-style:none;padding-left: 10px;\">\n    <li style=\"list-style:none;\" class=\"list-unstyled\">\n     <div>\n      <ul style=\"list-style:none;padding-left:0;\" class=\"list-unstyled\">\n       <li class=\"list-unstyled\">\n        <div class=\"treeview hover p-l-10\">\n         <input id=\"SDE Sex\" type=\"checkbox\"/>\n         <label for=\"SDE Sex\" class=\"list-header\"><strong>SDE Sex</strong></label>\n         <ul style=\"margin-right: 20%; opacity: 1;\" class=\"code\">\n          <li class=\"list-unstyled\">\n           <div>\n            <ul style=\"padding-left: 0px;\">\n             <li style=\"padding-left: 0px;\" class=\"list-unstyled\">\n              <div>\n               <pre class=\"cql-definition-body\">\tSDE.\"SDE Sex\"</pre>\n              </div></li>\n            </ul>%26nbsp;\n           </div></li>\n         </ul>\n        </div></li>\n      </ul>\n     </div></li>\n   </ul>\n  </div>\n  <h3><a name=\"d1e650\" href=\"#toc\">Functions</a></h3>\n  \n  <h3><a name=\"d1e555\" href=\"#toc\">Terminology</a></h3>\n  <div>\n   <ul style=\"padding-left: 50px;\">\n    <li style=\"width:80%\">codesystem \"LOINC\" : 'http://loinc.org'</li>\n    <li style=\"width:80%\">code \"HIV 1 and 2 tests - Meaningful Use set\" : '75622-1' from \"LOINC\" display 'HIV 1 and 2 tests - Meaningful Use set'</li>\n    <li style=\"width:80%\">valueset \"Conditions Due To Human Immunodeficiency Virus (HIV)\" : 'http://cts.nlm.nih.gov/fhir/ValueSet/2.16.840.1.113762.1.4.1056.54'</li>\n    <li style=\"width:80%\">valueset \"Ethnicity\" : 'http://cts.nlm.nih.gov/fhir/ValueSet/2.16.840.1.114222.4.11.837'</li>\n    <li style=\"width:80%\">valueset \"Human Immunodeficiency Virus (HIV) Laboratory Test Codes (Ab and Ag)\" : 'http://cts.nlm.nih.gov/fhir/ValueSet/2.16.840.1.113762.1.4.1056.50'</li>\n    <li style=\"width:80%\">valueset \"Office Visit\" : 'http://cts.nlm.nih.gov/fhir/ValueSet/2.16.840.1.113883.3.464.1003.101.12.1001'</li>\n    <li style=\"width:80%\">valueset \"ONC Administrative Sex\" : 'http://cts.nlm.nih.gov/fhir/ValueSet/2.16.840.1.113762.1.4.1'</li>\n    <li style=\"width:80%\">valueset \"Payer\" : 'http://cts.nlm.nih.gov/fhir/ValueSet/2.16.840.1.114222.4.11.3591'</li>\n    <li style=\"width:80%\">valueset \"Preventive Care Services - Established Office Visit, 18 and Up\" : 'http://cts.nlm.nih.gov/fhir/ValueSet/2.16.840.1.113883.3.464.1003.101.12.1025'</li>\n    <li style=\"width:80%\">valueset \"Preventive Care Services, Initial Office Visit, 0 to 17\" : 'http://cts.nlm.nih.gov/fhir/ValueSet/2.16.840.1.113883.3.464.1003.101.12.1022'</li>\n    <li style=\"width:80%\">valueset \"Preventive Care Services-Initial Office Visit, 18 and Up\" : 'http://cts.nlm.nih.gov/fhir/ValueSet/2.16.840.1.113883.3.464.1003.101.12.1023'</li>\n    <li style=\"width:80%\">valueset \"Preventive Care, Established Office Visit, 0 to 17\" : 'http://cts.nlm.nih.gov/fhir/ValueSet/2.16.840.1.113883.3.464.1003.101.12.1024'</li>\n    <li style=\"width:80%\">valueset \"Race\" : 'http://cts.nlm.nih.gov/fhir/ValueSet/2.16.840.1.114222.4.11.836'</li>\n   </ul>\n  </div>\n  <h3><a name=\"d1e647\" href=\"#toc\">Data Criteria (QDM Data Elements)</a></h3>\n  <div>\n    <ul style=\"padding-left: 50px;\">\n      <li style=\"width:80%\">\"Condition: Conditions Due To Human Immunodeficiency Virus (HIV)\" using \"Conditions Due To Human Immunodeficiency Virus (HIV) (http://cts.nlm.nih.gov/fhir/ValueSet/2.16.840.1.113762.1.4.1056.54)</li>\n      <li style=\"width:80%\">\"Encounter: Office Visit\" using \"Office Visit (http://cts.nlm.nih.gov/fhir/ValueSet/2.16.840.1.113883.3.464.1003.101.12.1001)</li>\n      <li style=\"width:80%\">\"Encounter: Preventive Care Services - Established Office Visit, 18 and Up\" using \"Preventive Care Services - Established Office Visit, 18 and Up (http://cts.nlm.nih.gov/fhir/ValueSet/2.16.840.1.113883.3.464.1003.101.12.1025)</li>\n      <li style=\"width:80%\">\"Encounter: Preventive Care Services, Initial Office Visit, 0 to 17\" using \"Preventive Care Services, Initial Office Visit, 0 to 17 (http://cts.nlm.nih.gov/fhir/ValueSet/2.16.840.1.113883.3.464.1003.101.12.1022)</li>\n      <li style=\"width:80%\">\"Encounter: Preventive Care Services-Initial Office Visit, 18 and Up\" using \"Preventive Care Services-Initial Office Visit, 18 and Up (http://cts.nlm.nih.gov/fhir/ValueSet/2.16.840.1.113883.3.464.1003.101.12.1023)</li>\n      <li style=\"width:80%\">\"Encounter: Preventive Care, Established Office Visit, 0 to 17\" using \"Preventive Care, Established Office Visit, 0 to 17 (http://cts.nlm.nih.gov/fhir/ValueSet/2.16.840.1.113883.3.464.1003.101.12.1024)</li>\n      <li style=\"width:80%\">\"Observation: Human Immunodeficiency Virus (HIV) Laboratory Test Codes (Ab and Ag)\" using \"Human Immunodeficiency Virus (HIV) Laboratory Test Codes (Ab and Ag) (http://cts.nlm.nih.gov/fhir/ValueSet/2.16.840.1.113762.1.4.1056.50)</li>\n    </ul>\n  </div>\n  <h3><a name=\"d1e767\" href=\"#toc\">Supplemental Data Elements</a></h3>\n  <div>\n   <ul style=\"list-style:none;padding-left: 25px;\">\n    <li class=\"list-unstyled\">\n     <div class=\"treeview hover p-l-10\">\n      <input id=\"SDE Ethnicity\" type=\"checkbox\"/>\n      <label for=\"SDE Ethnicity\" class=\"list-header\"><strong>SDE Ethnicity</strong></label>\n      <ul style=\"margin-right: 20%; opacity: 1;\" class=\"code\">\n       <li class=\"list-unstyled\">\n        <div>\n         <ul style=\"padding-left: 0px;\">\n          <li style=\"padding-left: 0px;\" class=\"list-unstyled\">\n           <div>\n            <pre class=\"cql-definition-body\">\t SDE.\"SDE Ethnicity\"</pre>\n           </div></li>\n         </ul>%26nbsp;\n        </div></li>\n      </ul>\n     </div></li>\n   </ul>\n  </div>\n  <div>\n   <ul style=\"list-style:none;padding-left: 25px;\">\n    <li class=\"list-unstyled\">\n     <div class=\"treeview hover p-l-10\">\n      <input id=\"SDE Payer\" type=\"checkbox\"/>\n      <label for=\"SDE Payer\" class=\"list-header\"><strong>SDE Payer</strong></label>\n      <ul style=\"margin-right: 20%; opacity: 1;\" class=\"code\">\n       <li class=\"list-unstyled\">\n        <div>\n         <ul style=\"padding-left: 0px;\">\n          <li style=\"padding-left: 0px;\" class=\"list-unstyled\">\n           <div>\n            <pre class=\"cql-definition-body\">\tSDE.\"SDE Payer\"</pre>\n           </div></li>\n         </ul>%26nbsp;\n        </div></li>\n      </ul>\n     </div></li>\n   </ul>\n  </div>\n  <div>\n   <ul style=\"list-style:none;padding-left: 25px;\">\n    <li class=\"list-unstyled\">\n     <div class=\"treeview hover p-l-10\">\n      <input id=\"SDE Race\" type=\"checkbox\"/>\n      <label for=\"SDE Race\" class=\"list-header\"><strong>SDE Race</strong></label>\n      <ul style=\"margin-right: 20%; opacity: 1;\" class=\"code\">\n       <li class=\"list-unstyled\">\n        <div>\n         <ul style=\"padding-left: 0px;\">\n          <li style=\"padding-left: 0px;\" class=\"list-unstyled\">\n           <div>\n            <pre class=\"cql-definition-body\">\tSDE.\"SDE Race\"</pre>\n           </div></li>\n         </ul>%26nbsp;\n        </div></li>\n      </ul>\n     </div></li>\n   </ul>\n  </div>\n  <div>\n   <ul style=\"list-style:none;padding-left: 25px;\">\n    <li class=\"list-unstyled\">\n     <div class=\"treeview hover p-l-10\">\n      <input id=\"SDE Sex\" type=\"checkbox\"/>\n      <label for=\"SDE Sex\" class=\"list-header\"><strong>SDE Sex</strong></label>\n      <ul style=\"margin-right: 20%; opacity: 1;\" class=\"code\">\n       <li class=\"list-unstyled\">\n        <div>\n         <ul style=\"padding-left: 0px;\">\n          <li style=\"padding-left: 0px;\" class=\"list-unstyled\">\n           <div>\n            <pre class=\"cql-definition-body\">\tSDE.\"SDE Sex\"</pre>\n           </div></li>\n         </ul>%26nbsp;\n        </div></li>\n      </ul>\n     </div></li>\n   </ul>\n  </div>\n  \n  <h3><a name=\"d1e879\" href=\"#toc\">Risk Adjustment Variables</a></h3>\n  <div>\n   <ul style=\"list-style:none;padding-left: 25px;\">\n    <li>None</li>\n   </ul>\n  </div>\n  <div style=\"float:left; background:teal; height:3px; width:80%\"></div>\n  <table>\n        \n              <!-- <th:block th:each=\"con, iter : ${resource.content}\">\n            <tr th:if=\"${con.contentType == 'text/cql'}\" style=\"vertical-align: top;\">\n                <td style=\"background-color:#656565; width:20%\" scope=\"row\"><span class=\"td_label\">Content</span></td>\n                <td style=\"width:80%\" ><b>type: </b><span th:text=\"${con.contentType}\"></span></td>\n            </tr>\n            <tr th:if=\"${con.contentType == 'text/cql'}\">\n                <td style=\"width:100%\" colspan=\"2\" >\n                    <th:block th:if=\"${con.getData() != null }\" >\n                        <pre><code th:class=\"${con.contentType == 'text/cql' ? 'language-cql' : 'language-xml'}\" th:text=\"${new java.lang.String(con.getData())}\"></code></pre>\n                    </th:block>\n                    <th:block th:if=\"${con.getData() == null }\" >\n                        <span><i>%26lt;content is empty%26gt;</i></span>\n                    </th:block>\n                </td>\n            </tr>\n        </th:block > -->\n    </table>\n</div>"
        },
        "extension": [
          {
            "url": "http://hl7.org/fhir/us/cqfmeasures/StructureDefinition/cqfm-populationBasis",
            "valueCode": "boolean"
          }
        ],
        "url": "http://hl7.org/fhir/us/cqfmeasures/Measure/measure-EXM349-FHIR3-2.9.000",
        "version": "2.9.000",
        "name": "EXM349",
        "title": "HIV Screening",
        "status": "active",
        "experimental": true,
        "publisher": "National Committee for Quality Assurance (NCQA)",
        "description": "Percentage of patients aged 15-65 at the start of the measurement period who were between 15-65 years old when tested for HIV",
        "purpose": "Patients 15 to 65 years of age at the start of the measurement period AND who had at least one outpatient visit during the measurement period",
        "effectivePeriod": {
          "start": "2019-01-01",
          "end": "2019-12-31"
        },
        "useContext": [
          {
            "code": {
              "code": "program"
            },
            "valueCodeableConcept": {
              "text": "eligible-provider"
            }
          }
        ],
        "jurisdiction": [
          {
            "coding": [
              {
                "system": "urn:iso:std:iso:3166",
                "code": "US"
              }
            ]
          }
        ],
        "topic": [
          {
            "coding": [
              {
                "system": "http://loinc.org",
                "code": "57024-2",
                "display": "Health Quality Measure Document"
              }
            ]
          }
        ],
        "contributor": [
          {
            "type": "author",
            "name": "National Committee for Quality Assurance"
          }
        ],
        "contact": [
          {
            "telecom": [
              {
                "system": "url",
                "value": "http://www.ncqa.org/"
              }
            ]
          }
        ],
        "copyright": "This Physician Performance Measure (Measure) and related data specifications were developed by the National Committee for Quality Assurance (NCQA). NCQA is not responsible for any use of the Measure. NCQA makes no representations, warranties, or endorsement about the quality of any organization or physician that uses or reports performance measures and NCQA has no liability to anyone who relies on such measures or specifications. NCQA holds a copyright in the Measure. The Measure can be reproduced and distributed, without modification, for noncommercial purposes (eg, use by healthcare providers in connection with their practices) without obtaining approval from NCQA. Commercial use is defined as the sale, licensing, or distribution of the Measure for commercial gain, or incorporation of the Measure into a product or service that is sold, licensed or distributed for commercial gain. All commercial uses or requests for modification must be approved by NCQA and are subject to a license at the discretion of NCQA. (C) 2012-2017 National Committee for Quality Assurance. All Rights Reserved. <br> Limited proprietary coding is contained in the Measure specifications for user convenience. Users of proprietary code sets should obtain all necessary licenses from the owners of the code sets. NCQA disclaims all liability for use or accuracy of any third party codes contained in the specifications. <br> CPT(R) contained in the Measure specifications is copyright 2004-2017 American Medical Association. LOINC(R) copyright 2004-2017 Regenstrief Institute, Inc. This material contains SNOMED Clinical Terms(R) (SNOMED CT[R] ) copyright 2004-2017 International Health Terminology Standards Development Organisation. ICD-10 copyright 2017 World Health Organization. All Rights Reserved.",
        "relatedArtifact": [
          {
            "type": "citation",
            "citation": "American Diabetes Association. (2018). 9. Cardiovascular disease and risk management: Standards of medical care in diabetes 2018. Diabetes Care, 41(Suppl. 1), S86-S104."
          },
          {
            "type": "citation",
            "citation": "Benjamin, E. J., Blaha, M. J., Chiuve, S. E., et al. (2017). Heart disease and stroke statistics-2017 update: A report from the American Heart Association. Circulation, 135(10), e146-e603.doi: 10.1161/CIR.0000000000000485"
          },
          {
            "type": "citation",
            "citation": "Centers for Disease Control and Prevention. (2012). Vital signs: Getting blood pressure under control. Retrieved from https://www.cdc.gov/vitalsigns/hypertension/index.html"
          },
          {
            "type": "citation",
            "citation": "Centers for Disease Control and Prevention. Division for Heart Disease and Stroke Prevention. (2016). High blood pressure fact sheet. Retrieved from https://www.cdc.gov/dhdsp/data_statistics/fact_sheets/fs_bloodpressure.htmhttps://www.cdc.gov/dhdsp/data_statistics/fact_sheets/fs_bloodpressure.htm. "
          },
          {
            "type": "citation",
            "citation": "Centers for Disease Control and Prevention, National Center for Health Statistics. (2015). Underlying Cause of Death 1999-2013 on CDC WONDER Online Database. Data are from the Multiple Cause of Death Files, 1999-2013, as compiled from data provided by the 57 vital statistics jurisdictions through the Vital Statistics Cooperative Program. Retrieved from http://wonder.cdc.gov/ucd-icd10.html"
          },
          {
            "type": "citation",
            "citation": "Crim, M. T., Yoon, S. S., Ortiz, E., et al. (2012). National surveillance definitions for hypertension prevalence and control among adults. Circulation: Cardiovascular Quality and Outcomes. 2012, ;5(3), :343-351. doi: 10.1161/ CIRCOUTCOMES.111.963439."
          },
          {
            "type": "citation",
            "citation": "James, P. A., Oparil, S., Carter, B. L., et al (2014). 2014 evidence-based guideline for the management of high blood pressure in adults: Report from the panel members appointed to the Eighth Joint National Committee (JNC8). JAMA. 311(5), 507-520. doi:10.1001/jama.2013.284427"
          },
          {
            "type": "citation",
            "citation": "Moran, A. E., Odden, M. C., Thanataveerat, A., et al.Tzong KY, Rasmussen PW, Guzman D, Williams L, Bibbins-Domingo K, Coxson PG, Goldman L. (2015). Cost-effectiveness of hypertension therapy according to 2014 guidelines. [published correction appears in N Engl J. Med. 2015;372:1677]. New England Journal of Medicine,. 2015 ;372, :447-455. doi:  10.1056/NEJMsa1406751. [published correction appears on page 1677] \nFarley TA, Dalal MA, Mostashari F, Frieden TR. Deaths preventable in the US by improvements in the use of clinical preventive services. Am J Prev Med. 2010;38:600-9."
          },
          {
            "type": "citation",
            "citation": "Patel, S. A., Winkel, M., Ali, M. K., et al. (2015). Cardiovascular mortality associated with 5 leading risk factors: National and state preventable fractions estimated from survey data. Annals of Internal Medicine, 163(4), :245253. doi: 10.7326/M14-1753"
          },
          {
            "type": "citation",
            "citation": "Qaseem, A., Wilt, T. J., Rich, R., et al. (2017). Pharmacologic treatment of hypertension in adults aged 60 years or older to higher versus lower blood pressure targets: A clinical practice guideline from the American College of Physicians and the American Academy of Family Physicians. Annals of Internal Medicine, 166(6), 430-437."
          },
          {
            "type": "citation",
            "citation": "SPRINT Research Group,; Wright, J. T., Jr., Williamson,  J. D., et al. (2015). A randomized trial of intensive versus standard blood-pressure control. New England Journal of Medicine, 373(22), 21032116."
          },
          {
            "type": "citation",
            "citation": "U.S. Preventive Services Task Force. (2015). Screening for high blood pressure in adults: U.S. Preventive Services Task Force recommendation statement. Annals of Internal Medicine, 163(10), 778-787."
          },
          {
            "type": "citation",
            "citation": "Whelton, P. K., Carey, R. M., Aronow, W. S., et al. (2017). Guideline for the prevention, detection, evaluation, and management of high blood pressure in adults: A report of the American College of Cardiology/American Heart Association Task Force on Clinical Practice Guidelines. Journal of the American College of Cardiology, . https://doi.org/10.1161/HYP.0000000000000065"
          },
          {
            "type": "citation",
            "citation": "Yoon, S. S., Fryar, C. D., & Carroll, M. D. (2015). Hypertension prevalence and control among adults: United States, 2011-2014. NCHS Data Brief No. 220. Hyattsville, MD: National Center for Health Statistics."
          },
          {
            "type": "depends-on",
            "resource": {
              "reference": "Library/library-MATGlobalCommonFunctions-FHIR3-2.0.000"
            }
          },
          {
            "type": "depends-on",
            "resource": {
              "reference": "Library/library-FHIRHelpers-3.0.0"
            }
          },
          {
            "type": "depends-on",
            "resource": {
              "reference": "Library/library-SupplementalDataElements-FHIR3-1.0.0"
            }
          }
        ],
        "library": [
          {
            "reference": "Library/library-EXM349-FHIR3-2.9.000"
          }
        ],
        "disclaimer": "The performance Measure is not a clinical guideline and does not establish a standard of medical care, and has not been tested for all potential applications. THE MEASURE AND SPECIFICATIONS ARE PROVIDED \"AS IS\" WITHOUT WARRANTY OF ANY KIND.\n \nDue to technical limitations, registered trademarks are indicated by (R) or [R] and unregistered trademarks are indicated by (TM) or [TM].",
        "scoring": {
          "coding": [
            {
              "system": "http://hl7.org/fhir/measure-scoring",
              "code": "proportion"
            }
          ]
        },
        "type": [
          {
            "coding": [
              {
                "system": "http://hl7.org/fhir/measure-type",
                "code": "process"
              }
            ]
          }
        ],
        "rationale": "Human immunodeficiency virus (HIV) is a communicable infection that leads to a progressive disease with a long asymptomatic period. There were an estimated 38,500 new HIV infections in the United States in 2015 (Centers for Disease Control and Prevention, 2018a). Without treatment, most persons develop acquired immunodeficiency syndrome (AIDS) within 10 years of HIV infection. Antiretroviral therapy (ART) delays this progression and increases the length of survival, but it is most effective when initiated during the asymptomatic phase. Persons living with HIV who use ART and achieve viral suppression can have a nearly normal life expectancy (Samji et al., 2013).  DHHS Guidelines for the Use of Antiretroviral Agents in HIV-1-Infected Adults and Adolescents recommends antiretroviral therapy for all HIV-infected individuals to reduce the risk of disease progression (regardless of CD4 cell count at diagnosis) (Panel on Antiretroviral Guidelines for Adults and Adolescents, 2017).\n\nCDC estimates that almost 15% of the 1.1 million adults and adolescents living with HIV infection in the United States are unaware of their infection (Centers for Disease Control and Prevention, 2018b). Among persons diagnosed with HIV in 2011, one quarter were diagnosed with Stage 3 HIV (AIDS) at the time of HIV diagnosis (Centers for Disease Control and Prevention, 2018c), which is when the median CD4 count at diagnosis is less than 200 cells/mm3 for persons aged greater than or equal to 6 years (Centers for Disease Control and Prevention, 2018a). HIV screening identifies infected persons who were previously unaware of their infection, which enables them to seek medical and social services that can improve their health and the quality and length of their lives. Additionally, using ART with high levels of medication adherence has been shown to substantially reduce risk for HIV transmission (Panel on Antiretroviral Guidelines for Adults and Adolescents, 2017).\n\nBased on the National Health Interview Survey, fewer than half of persons 18 and older reported ever having been tested for HIV as of 2017 (Blackwell et al., 2019).",
        "clinicalRecommendationStatement": "The US Preventive Services Task Force recommends that clinicians screen for HIV infection in adolescents and adults aged 15 to 65 years. Younger adolescents and older adults who are at increased risk should also be screened (A Recommendation) (Moyer, 2013).\n\nSince 2006, the CDC has recommended routine opt-out HIV screening (i.e., patient is notified that testing will be performed unless the patient declines) in healthcare facilities of adolescents and adults 13-64 years of age and HIV diagnostic testing of adolescents and adults with clinical signs or symptoms consistent with HIV infection (Centers for Disease Control and Prevention, 2006).",
        "improvementNotation": "increase",
        "guidance": "This measure evaluates the proportion of patients aged 15 to 65 at the start of the measurement period who have documentation of having received an HIV test at least once on or after their 15th birthday and before their 66th birthday. In order to satisfy the measure, the reporting provider must have documentation of the administration of the laboratory test present in the patient's medical record. In cases where the HIV test was performed elsewhere, providers cannot rely on patient attestation or self-report to meet the measure requirements, as previous research has shown that patient self-report is an unreliable indicator of previous HIV testing history. Rather, providers must request documentation of those test results. If such documentation is not available, the patient should be considered still eligible for HIV screening. If such documentation is available, but cannot be provided in a standardized, structured format (such that the lab test and results can be readily incorporated as structured data within the EHR), providers should enter the information into their EHR as a laboratory test in a manner consistent with the EHR in use. If the specific Human Immunodeficiency Virus (HIV) Laboratory Test LOINC code of the test is not known, the entry should use the more generic code LOINC panel code [75622-1].",
        "group": [
          {
            "identifier": {
              "value": "group-1"
            },
            "population": [
              {
                "identifier": {
                  "value": "initial-population-identifier"
                },
                "code": {
                  "coding": [
                    {
                      "system": "http://terminology.hl7.org/CodeSystem/measure-population",
                      "code": "initial-population",
                      "display": "Initial Population"
                    }
                  ]
                },
                "criteria": "Initial Population"
              },
              {
                "identifier": {
                  "value": "numerator-identifier"
                },
                "code": {
                  "coding": [
                    {
                      "system": "http://terminology.hl7.org/CodeSystem/measure-population",
                      "code": "numerator",
                      "display": "Numerator"
                    }
                  ]
                },
                "criteria": "Numerator"
              },
              {
                "identifier": {
                  "value": "denominator-identifier"
                },
                "code": {
                  "coding": [
                    {
                      "system": "http://terminology.hl7.org/CodeSystem/measure-population",
                      "code": "denominator",
                      "display": "Denominator"
                    }
                  ]
                },
                "criteria": "Denominator"
              },
              {
                "identifier": {
                  "value": "denominator-exclusions-identifier"
                },
                "code": {
                  "coding": [
                    {
                      "system": "http://terminology.hl7.org/CodeSystem/measure-population",
                      "code": "denominator-exclusion",
                      "display": "Denominator Exclusion"
                    }
                  ]
                },
                "criteria": "Denominator Exclusion"
              }
            ]
          }
        ],
        "supplementalData": [
          {
            "identifier": {
              "value": "sde-ethnicity"
            },
            "usage": [
              {
                "coding": [
                  {
                    "system": "http://hl7.org/fhir/measure-data-usage",
                    "code": "supplemental-data"
                  }
                ]
              }
            ],
            "criteria": "SDE Ethnicity"
          },
          {
            "identifier": {
              "value": "sde-payer"
            },
            "usage": [
              {
                "coding": [
                  {
                    "system": "http://hl7.org/fhir/measure-data-usage",
                    "code": "supplemental-data"
                  }
                ]
              }
            ],
            "criteria": "SDE Payer"
          },
          {
            "identifier": {
              "value": "sde-race"
            },
            "usage": [
              {
                "coding": [
                  {
                    "system": "http://hl7.org/fhir/measure-data-usage",
                    "code": "supplemental-data"
                  }
                ]
              }
            ],
            "criteria": "SDE Race"
          },
          {
            "identifier": {
              "value": "sde-sex"
            },
            "usage": [
              {
                "coding": [
                  {
                    "system": "http://hl7.org/fhir/measure-data-usage",
                    "code": "supplemental-data"
                  }
                ]
              }
            ],
            "criteria": "SDE Sex"
          }
        ]
      },
      "request": {
        "method": "PUT",
        "url": "Measure/measure-EXM349-FHIR3-2.9.000/_history/2"
      }
    }
  ]
}