{
  "resourceType": "Bundle",
  "id": "Shirley-Woodard-Ellis-2673-Encounter-299",
  "type": "transaction",
  "entry": [
    {
      "fullUrl": "http://localhost:8080/cqf-ruler/baseDstu3/Encounter/Encounter-299",
      "resource": {
        "resourceType": "Encounter",
        "id": "Encounter-299",
        "meta": {
          "profile": [
            "http://hl7.org/fhir/us/hedis/StructureDefinition/hedis-encounter"
          ]
        },
        "extension": [
          {
            "url": "http://mihin.org/extension/copyright",
            "valueString": "Copyright 2014-2019 Michigan Health Information Network Shared Services. Licensed under the Apache License, Version 2.0 (the 'License'); you may not use this file except in compliance with the License. You may obtain a copy of the License at  http://www.apache.org/licenses/LICENSE-2.0.  Unless required by applicable law or agreed to in writing, software distributed under the License is distributed on an 'AS IS' BASIS, WITHOUT WARRANTIES OR CONDITIONS OF ANY KIND, either express or implied. See the License for the specific language governing permissions and limitations under the License."
          }
        ],
        "status": "finished",
        "class": {
          "system": "http://hl7.org/fhir/encounter-class",
          "code": "ambulatory",
          "display": "ambulatory"
        },
        "type": [
          {
            "coding": [
              {
                "system": "http://snomed.info/sct",
                "code": "428191000124101",
                "display": "Documentation of current medications"
              }
            ]
          }
        ],
        "subject": {
          "reference": "Patient/Patient-2673",
          "display": "Shirley Woodard Ellis"
        },
        "participant": [
          {
            "period": {
              "start": "2016-01-10T00:00:00-05:00",
              "end": "2016-01-15T00:00:00-05:00"
            },
            "individual": {
              "reference": "Practitioner/Practitioner-2243",
              "display": "Rose Diane Brock MD"
            }
          }
        ],
        "period": {
          "start": "2016-01-10T00:00:00-05:00",
          "end": "2016-01-15T00:00:00-05:00"
        },
        "location": [
          {
            "location": {
              "reference": "Location/Location-155",
              "display": "Community Family Hospital"
            }
          }
        ],
        "serviceProvider": {
          "reference": "Organization/Organization-1013",
          "display": "Community Family Hospital"
        }
      },
      "request": {
        "method": "PUT",
        "url": "http://localhost:8080/cqf-ruler/baseDstu3/Encounter/Encounter-299"
      }
    },
    {
      "fullUrl": "http://localhost:8080/cqf-ruler/baseDstu3/Task/Task-3448",
      "resource": {
        "resourceType": "Task",
        "id": "Task-3448",
        "extension": [
          {
            "url": "http://mihin.org/extension/copyright",
            "valueString": "Copyright 2014-2019 Michigan Health Information Network Shared Services. Licensed under the Apache License, Version 2.0 (the 'License'); you may not use this file except in compliance with the License. You may obtain a copy of the License at  http://www.apache.org/licenses/LICENSE-2.0.  Unless required by applicable law or agreed to in writing, software distributed under the License is distributed on an 'AS IS' BASIS, WITHOUT WARRANTIES OR CONDITIONS OF ANY KIND, either express or implied. See the License for the specific language governing permissions and limitations under the License."
          }
        ],
        "status": "accepted",
        "intent": "original-order",
        "code": {
          "coding": [
            {
              "system": "SNOMED-CT",
              "code": "430193006",
              "display": "Medication Reconciliation (procedure)"
            }
          ]
        },
        "description": "Care_Plan_Start Task 1",
        "for": {
          "reference": "Patient/Patient-2673",
          "display": "Shirley Woodard Ellis"
        },
        "context": {
          "reference": "Encounter/Encounter-299",
          "display": "Ambulatory_Encounter"
        },
        "executionPeriod": {
          "start": "2016-01-10T00:00:00-05:00",
          "end": "2016-01-10T00:00:00-05:00"
        },
        "authoredOn": "2016-01-10T00:00:00-05:00",
        "requester": {
          "agent": {
            "reference": "Practitioner/Practitioner-2243",
            "display": "Rose Diane Brock MD"
          },
          "onBehalfOf": {
            "reference": "Organization/Organization-1013",
            "display": "Community Family Hospital"
          }
        }
      },
      "request": {
        "method": "PUT",
        "url": "http://localhost:8080/cqf-ruler/baseDstu3/Task/Task-3448"
      }
    },
    {
      "fullUrl": "http://localhost:8080/cqf-ruler/baseDstu3/CarePlan/CarePlan-3447",
      "resource": {
        "resourceType": "CarePlan",
        "id": "CarePlan-3447",
        "extension": [
          {
            "url": "http://mihin.org/extension/copyright",
            "valueString": "Copyright 2014-2019 Michigan Health Information Network Shared Services. Licensed under the Apache License, Version 2.0 (the 'License'); you may not use this file except in compliance with the License. You may obtain a copy of the License at  http://www.apache.org/licenses/LICENSE-2.0.  Unless required by applicable law or agreed to in writing, software distributed under the License is distributed on an 'AS IS' BASIS, WITHOUT WARRANTIES OR CONDITIONS OF ANY KIND, either express or implied. See the License for the specific language governing permissions and limitations under the License."
          }
        ],
        "identifier": [
          {
            "use": "official",
            "system": "mihin.org/fhir/sid/elementId",
            "value": "fc3f3ddc-f5ae-4732-a495-7f8afe9c4ff8"
          }
        ],
        "status": "active",
        "category": [
          {
            "coding": [
              {
                "system": "http://snomed.info/sct",
                "code": "430193006",
                "display": "Medication Reconciliation (procedure)"
              }
            ]
          }
        ],
        "subject": {
          "reference": "Patient/Patient-2673",
          "display": "Shirley Woodard Ellis"
        },
        "context": {
          "reference": "Encounter/Encounter-299",
          "display": "Ambulatory_Encounter"
        },
        "period": {
          "start": "2016-01-10T00:00:00-05:00",
          "end": "2016-01-10T00:00:00-05:00"
        },
        "author": [
          {
            "reference": "Practitioner/Practitioner-2243",
            "display": "Rose Diane Brock MD"
          }
        ],
        "activity": [
          {
            "reference": {
              "reference": "Task/Task-3448",
              "display": "Care_Plan_Start Task 1"
            }
          }
        ]
      },
      "request": {
        "method": "PUT",
        "url": "http://localhost:8080/cqf-ruler/baseDstu3/CarePlan/CarePlan-3447"
      }
    },
    {
      "fullUrl": "http://localhost:8080/cqf-ruler/baseDstu3/Procedure/Procedure-3449",
      "resource": {
        "resourceType": "Procedure",
        "id": "Procedure-3449",
        "meta": {
          "profile": [
            "http://hl7.org/fhir/us/hedis/StructureDefinition/hedis-procedure"
          ]
        },
        "extension": [
          {
            "url": "http://mihin.org/extension/copyright",
            "valueString": "Copyright 2014-2019 Michigan Health Information Network Shared Services. Licensed under the Apache License, Version 2.0 (the 'License'); you may not use this file except in compliance with the License. You may obtain a copy of the License at  http://www.apache.org/licenses/LICENSE-2.0.  Unless required by applicable law or agreed to in writing, software distributed under the License is distributed on an 'AS IS' BASIS, WITHOUT WARRANTIES OR CONDITIONS OF ANY KIND, either express or implied. See the License for the specific language governing permissions and limitations under the License."
          }
        ],
        "identifier": [
          {
            "use": "official",
            "system": "mihin.org/fhir/sid/elementId",
            "value": "0d4cadee-da18-41cc-a62f-943dd26f1718"
          }
        ],
        "status": "completed",
        "code": {
          "coding": [
            {
              "system": "http://snomed.info/sct",
              "code": "430193006",
              "display": "Medication Reconciliation (procedure)"
            }
          ]
        },
        "subject": {
          "reference": "Patient/Patient-2673",
          "display": "Shirley Woodard Ellis"
        },
        "context": {
          "reference": "Encounter/Encounter-299",
          "display": "Ambulatory_Encounter"
        },
        "performedPeriod": {
          "start": "2016-01-10T00:00:00-05:00",
          "end": "2016-01-10T00:00:00-05:00"
        },
        "performer": [
          {
            "actor": {
              "reference": "Practitioner/Practitioner-2243",
              "display": "Rose Diane Brock MD"
            }
          }
        ],
        "location": {
          "reference": "Location/Location-155",
          "display": "Community Family Hospital"
        }
      },
      "request": {
        "method": "PUT",
        "url": "http://localhost:8080/cqf-ruler/baseDstu3/Procedure/Procedure-3449"
      }
    },
    {
      "fullUrl": "http://localhost:8080/cqf-ruler/baseDstu3/MedicationStatement/MedicationStatement-3450",
      "resource": {
        "resourceType": "MedicationStatement",
        "id": "MedicationStatement-3450",
        "extension": [
          {
            "url": "http://mihin.org/extension/copyright",
            "valueString": "Copyright 2014-2019 Michigan Health Information Network Shared Services. Licensed under the Apache License, Version 2.0 (the 'License'); you may not use this file except in compliance with the License. You may obtain a copy of the License at  http://www.apache.org/licenses/LICENSE-2.0.  Unless required by applicable law or agreed to in writing, software distributed under the License is distributed on an 'AS IS' BASIS, WITHOUT WARRANTIES OR CONDITIONS OF ANY KIND, either express or implied. See the License for the specific language governing permissions and limitations under the License."
          }
        ],
        "context": {
          "reference": "Encounter/Encounter-299",
          "display": "Ambulatory_Encounter"
        },
        "status": "active",
        "category": {
          "coding": [
            {
              "system": "http://terminology.hl7.org/CodeSystem/medication-statement-category"
            }
          ]
        },
        "medicationCodeableConcept": {
          "coding": [
            {
              "system": "http://www.nlm.nih.gov/research/umls/rxnorm",
              "code": "1659263",
              "display": "1 ML heparin sodium, porcine 5000 UNT/ML Injection"
            }
          ]
        },
        "effectivePeriod": {
          "start": "2016-01-15T00:00:00-05:00",
          "end": "2016-01-15T00:00:00-05:00"
        },
        "dateAsserted": "2016-01-15T00:00:00-05:00",
        "informationSource": {
          "reference": "Practitioner/Practitioner-2243",
          "display": "Rose Diane Brock MD"
        },
        "subject": {
          "reference": "Patient/Patient-2673",
          "display": "Shirley Woodard Ellis"
        },
        "reasonCode": [
          {
            "coding": [
              {
                "system": "http://www.icd10data.com/icd10pcs",
                "code": "0DL60CZ",
                "display": "Occlusion of Stomach with Extraluminal Device, Open Approach"
              }
            ]
          }
        ]
      },
      "request": {
        "method": "PUT",
        "url": "http://localhost:8080/cqf-ruler/baseDstu3/MedicationStatement/MedicationStatement-3450"
      }
    }
  ]
}