{
  "resourceType": "Bundle",
  "id": "Melanie-Gross-Graves-463-Encounter-4161",
  "type": "transaction",
  "entry": [
    {
      "fullUrl": "http://localhost:8080/cqf-ruler/baseDstu3/Encounter/Encounter-4161",
      "resource": {
        "resourceType": "Encounter",
        "id": "Encounter-4161",
        "meta": {
          "profile": [
            "http://hl7.org/fhir/us/hedis/StructureDefinition/hedis-encounter"
          ]
        },
        "extension": [
          {
            "url": "http://mihin.org/extension/copyright",
            "valueString": "Copyright 2014-2018 Michigan Health Information Network Shared Services. Licensed under the Apache License, Version 2.0 (the 'License'); you may not use this file except in compliance with the License. You may obtain a copy of the License at  http://www.apache.org/licenses/LICENSE-2.0.  Unless required by applicable law or agreed to in writing, software distributed under the License is distributed on an 'AS IS' BASIS, WITHOUT WARRANTIES OR CONDITIONS OF ANY KIND, either express or implied. See the License for the specific language governing permissions and limitations under the License."
          }
        ],
        "status": "finished",
        "class": {
          "system": "http://hl7.org/fhir/encounter-class",
          "code": "ambulatory",
          "display": "ambulatory"
        },
        "type": [
          {
            "coding": [
              {
                "system": "http://snomed.info/sct",
                "code": "428191000124101",
                "display": "Documentation of current medications"
              }
            ]
          }
        ],
        "subject": {
          "reference": "Patient/Patient-463",
          "display": "Melanie Gross Graves"
        },
        "participant": [
          {
            "period": {
              "start": "2019-03-25T01:00:00-04:00",
              "end": "2019-03-25T01:00:00-04:00"
            },
            "individual": {
              "reference": "Practitioner/Practitioner-67",
              "display": "Ted Lawson Boyle MD"
            }
          }
        ],
        "period": {
          "start": "2019-03-25T01:00:00-04:00",
          "end": "2019-03-25T01:00:00-04:00"
        },
        "location": [
          {
            "location": {
              "reference": "Location/Location-199",
              "display": "Ruth Israel Hospital"
            }
          }
        ],
        "serviceProvider": {
          "reference": "Organization/Organization-1022",
          "display": "Ruth Israel Hospital"
        }
      },
      "request": {
        "method": "PUT",
        "url": "http://localhost:8080/cqf-ruler/baseDstu3/Encounter/Encounter-4161"
      }
    },
    {
      "fullUrl": "http://localhost:8080/cqf-ruler/baseDstu3/Task/Task-120839",
      "resource": {
        "resourceType": "Task",
        "id": "Task-120839",
        "extension": [
          {
            "url": "http://mihin.org/extension/copyright",
            "valueString": "Copyright 2014-2018 Michigan Health Information Network Shared Services. Licensed under the Apache License, Version 2.0 (the 'License'); you may not use this file except in compliance with the License. You may obtain a copy of the License at  http://www.apache.org/licenses/LICENSE-2.0.  Unless required by applicable law or agreed to in writing, software distributed under the License is distributed on an 'AS IS' BASIS, WITHOUT WARRANTIES OR CONDITIONS OF ANY KIND, either express or implied. See the License for the specific language governing permissions and limitations under the License."
          }
        ],
        "status": "accepted",
        "intent": "original-order",
        "code": {
          "coding": [
            {
              "system": "SNOMED-CT",
              "code": "430193006",
              "display": "Medication Reconciliation (procedure)"
            }
          ]
        },
        "description": "Care_Plan_Start Task 1",
        "for": {
          "reference": "Patient/Patient-463",
          "display": "Melanie Gross Graves"
        },
        "context": {
          "reference": "Encounter/Encounter-4161",
          "display": "Ambulatory_Encounter"
        },
        "executionPeriod": {
          "start": "2019-03-25T01:00:00-04:00",
          "end": "2019-03-25T01:00:00-04:00"
        },
        "authoredOn": "2019-03-25T01:00:00-04:00",
        "requester": {
          "agent": {
            "reference": "Practitioner/Practitioner-67",
            "display": "Ted Lawson Boyle MD"
          },
          "onBehalfOf": {
            "reference": "Organization/Organization-1022",
            "display": "Ruth Israel Hospital"
          }
        }
      },
      "request": {
        "method": "PUT",
        "url": "http://localhost:8080/cqf-ruler/baseDstu3/Task/Task-120839"
      }
    },
    {
      "fullUrl": "http://localhost:8080/cqf-ruler/baseDstu3/CarePlan/CarePlan-120838",
      "resource": {
        "resourceType": "CarePlan",
        "id": "CarePlan-120838",
        "extension": [
          {
            "url": "http://mihin.org/extension/copyright",
            "valueString": "Copyright 2014-2018 Michigan Health Information Network Shared Services. Licensed under the Apache License, Version 2.0 (the 'License'); you may not use this file except in compliance with the License. You may obtain a copy of the License at  http://www.apache.org/licenses/LICENSE-2.0.  Unless required by applicable law or agreed to in writing, software distributed under the License is distributed on an 'AS IS' BASIS, WITHOUT WARRANTIES OR CONDITIONS OF ANY KIND, either express or implied. See the License for the specific language governing permissions and limitations under the License."
          }
        ],
        "identifier": [
          {
            "use": "official",
            "system": "mihin.org/fhir/sid/elementId",
            "value": "0cc6dcf1-21ad-44d8-a4d1-517902d314ba"
          }
        ],
        "status": "active",
        "category": [
          {
            "coding": [
              {
                "system": "http://snomed.info/sct",
                "code": "430193006",
                "display": "Medication Reconciliation (procedure)"
              }
            ]
          }
        ],
        "subject": {
          "reference": "Patient/Patient-463",
          "display": "Melanie Gross Graves"
        },
        "context": {
          "reference": "Encounter/Encounter-4161",
          "display": "Ambulatory_Encounter"
        },
        "period": {
          "start": "2019-03-25T01:00:00-04:00",
          "end": "2019-03-25T01:00:00-04:00"
        },
        "author": [
          {
            "reference": "Practitioner/Practitioner-67",
            "display": "Ted Lawson Boyle MD"
          }
        ],
        "activity": [
          {
            "reference": {
              "reference": "Task/Task-120839",
              "display": "Care_Plan_Start Task 1"
            }
          }
        ]
      },
      "request": {
        "method": "PUT",
        "url": "http://localhost:8080/cqf-ruler/baseDstu3/CarePlan/CarePlan-120838"
      }
    },
    {
      "fullUrl": "http://localhost:8080/cqf-ruler/baseDstu3/Procedure/Procedure-120840",
      "resource": {
        "resourceType": "Procedure",
        "id": "Procedure-120840",
        "meta": {
          "profile": [
            "http://hl7.org/fhir/us/hedis/StructureDefinition/hedis-procedure"
          ]
        },
        "extension": [
          {
            "url": "http://mihin.org/extension/copyright",
            "valueString": "Copyright 2014-2018 Michigan Health Information Network Shared Services. Licensed under the Apache License, Version 2.0 (the 'License'); you may not use this file except in compliance with the License. You may obtain a copy of the License at  http://www.apache.org/licenses/LICENSE-2.0.  Unless required by applicable law or agreed to in writing, software distributed under the License is distributed on an 'AS IS' BASIS, WITHOUT WARRANTIES OR CONDITIONS OF ANY KIND, either express or implied. See the License for the specific language governing permissions and limitations under the License."
          }
        ],
        "identifier": [
          {
            "use": "official",
            "system": "mihin.org/fhir/sid/elementId",
            "value": "bb7a3f15-6453-413f-b418-1aa7b7d841aa"
          }
        ],
        "status": "completed",
        "code": {
          "coding": [
            {
              "system": "http://snomed.info/sct",
              "code": "430193006",
              "display": "Medication Reconciliation (procedure)"
            }
          ]
        },
        "subject": {
          "reference": "Patient/Patient-463",
          "display": "Melanie Gross Graves"
        },
        "context": {
          "reference": "Encounter/Encounter-4161",
          "display": "Ambulatory_Encounter"
        },
        "performedPeriod": {
          "start": "2019-03-25T01:00:00-04:00",
          "end": "2019-03-25T01:00:00-04:00"
        },
        "performer": [
          {
            "actor": {
              "reference": "Practitioner/Practitioner-67",
              "display": "Ted Lawson Boyle MD"
            }
          }
        ],
        "location": {
          "reference": "Location/Location-199",
          "display": "Ruth Israel Hospital"
        }
      },
      "request": {
        "method": "PUT",
        "url": "http://localhost:8080/cqf-ruler/baseDstu3/Procedure/Procedure-120840"
      }
    }
  ]
}