{
  "resourceType": "Bundle",
  "id": "EXM165-FHIR3-8.5.000-bundle",
  "type": "transaction",
  "entry": [ {
    "resource": {
      "resourceType": "MeasureReport",
      "id": "measurereport-denom-EXM165-FHIR3",
      "contained": [ {
        "resourceType": "Bundle",
        "id": "16fd2bb9-f22c-4a5d-95ea-785493cb450f",
        "type": "collection",
        "entry": [ {
          "fullUrl": "Patient/denom-EXM165-FHIR3",
          "resource": {
            "resourceType": "Patient",
            "id": "denom-EXM165-FHIR3",
            "meta": {
              "profile": [ "http://hl7.org/fhir/us/core/StructureDefinition/us-core-patient" ]
            },
            "extension": [ {
              "url": "http://hl7.org/fhir/us/core/StructureDefinition/us-core-race",
              "extension": [ {
                "url": "ombCategory",
                "valueCoding": {
                  "system": "urn:oid:2.16.840.1.113883.6.238",
                  "code": "2106-3",
                  "display": "White"
                }
              } ]
            }, {
              "url": "http://hl7.org/fhir/us/core/StructureDefinition/us-core-ethnicity",
              "extension": [ {
                "url": "ombCategory",
                "valueCoding": {
                  "system": "urn:oid:2.16.840.1.113883.6.238",
                  "code": "2186-5",
                  "display": "Not Hispanic or Latino"
                }
              } ]
            } ],
            "identifier": [ {
              "use": "usual",
              "type": {
                "coding": [ {
                  "system": "http://terminology.hl7.org/CodeSystem/v2-0203",
                  "code": "MR",
                  "display": "Medical Record Number"
                } ]
              },
              "system": "http://hospital.smarthealthit.org",
              "value": "999999992"
            } ],
            "name": [ {
              "family": "Jones",
              "given": [ "Rick" ]
            } ],
            "gender": "male",
            "birthDate": "1976-04-26"
          }
        }, {
          "fullUrl": "Condition/denom-EXM165-FHIR3-2",
          "resource": {
            "resourceType": "Condition",
            "id": "denom-EXM165-FHIR3-2",
            "meta": {
              "profile": [ "http://hl7.org/fhir/us/core/StructureDefinition/us-core-condition" ]
            },
            "verificationStatus": "confirmed",
            "category": [ {
              "coding": [ {
                "system": "http://terminology.hl7.org/CodeSystem/condition-category",
                "code": "encounter-diagnosis",
                "display": "Encounter Diagnosis"
              } ]
            } ],
            "code": {
              "coding": [ {
                "system": "http://snomed.info/sct",
                "code": "59621000",
                "display": "Essential hypertension (disorder)"
              } ]
            },
            "subject": {
              "reference": "Patient/denom-EXM165-FHIR3"
            },
            "assertedDate": "2019-04-16T13:51:21-06:00"
          }
        }, {
          "fullUrl": "Encounter/denom-EXM165-FHIR3-1",
          "resource": {
            "resourceType": "Encounter",
            "id": "denom-EXM165-FHIR3-1",
            "meta": {
              "profile": [ "http://hl7.org/fhir/us/core/StructureDefinition/us-core-encounter" ]
            },
            "status": "finished",
            "class": {
              "system": "http://terminology.hl7.org/CodeSystem/v3-ActCode",
              "code": "AMB",
              "display": "ambulatory"
            },
            "type": [ {
              "coding": [ {
                "system": "http://www.ama-assn.org/go/cpt",
                "code": "99201",
                "display": "Office or other outpatient visit for the evaluation and management of a new patient, which requires these 3 key components: A problem focused history; A problem focused examination; Straightforward medical decision making. Counseling and/or coordination of care with other physicians, other qualified health care professionals, or agencies are provided consistent with the nature of the problem(s) and the patient's and/or family's needs. Usually, the presenting problem(s) are self limited or minor. Typically, 10 minutes are spent face-to-face with the patient and/or family."
              } ]
            } ],
            "subject": {
              "reference": "Patient/denom-EXM165-FHIR3"
            },
            "period": {
              "start": "2019-05-30T00:00:00-00:00",
              "end": "2019-05-31T00:00:00-00:00"
            }
          }
        }, {
          "fullUrl": "12f18829-fe38-4f8b-bbc4-a1fe1b444032",
          "resource": {
            "resourceType": "List",
            "id": "12f18829-fe38-4f8b-bbc4-a1fe1b444032",
            "title": "initial-population",
            "entry": [ {
              "item": {
                "reference": "denom-EXM165-FHIR3"
              }
            }, {
              "item": {
                "reference": "denom-EXM165-FHIR3-2"
              }
            }, {
              "item": {
                "reference": "denom-EXM165-FHIR3-1"
              }
            } ]
          }
        } ]
      } ],
      "status": "complete",
      "type": "individual",
      "measure": {
        "reference": "Measure/measure-EXM165-FHIR3-8.5.000"
      },
      "patient": {
        "reference": "Patient/denom-EXM165-FHIR3"
      },
      "period": {
        "start": "2019-01-01T00:00:00-07:00",
        "end": "2019-12-31T00:00:00-07:00"
      },
      "group": [ {
        "identifier": {
          "value": "group-1"
        },
        "population": [ {
          "identifier": {
            "value": "initial-population-identifier"
          },
          "code": {
            "coding": [ {
              "system": "http://terminology.hl7.org/CodeSystem/measure-population",
              "code": "initial-population",
              "display": "Initial Population"
            } ]
          },
          "count": 1
        }, {
          "identifier": {
            "value": "numerator-identifier"
          },
          "code": {
            "coding": [ {
              "system": "http://terminology.hl7.org/CodeSystem/measure-population",
              "code": "numerator",
              "display": "Numerator"
            } ]
          },
          "count": 0
        }, {
          "identifier": {
            "value": "denominator-identifier"
          },
          "code": {
            "coding": [ {
              "system": "http://terminology.hl7.org/CodeSystem/measure-population",
              "code": "denominator",
              "display": "Denominator"
            } ]
          },
          "count": 1
        }, {
          "identifier": {
            "value": "denominator-exclusions-identifier"
          },
          "code": {
            "coding": [ {
              "system": "http://terminology.hl7.org/CodeSystem/measure-population",
              "code": "denominator-exclusion",
              "display": "Denominator Exclusion"
            } ]
          },
          "count": 0
        } ],
        "measureScore": 0.0
      } ],
      "evaluatedResources": {
        "reference": "#16fd2bb9-f22c-4a5d-95ea-785493cb450f"
      }
    },
    "request": {
      "method": "PUT",
      "url": "MeasureReport/measurereport-denom-EXM165-FHIR3"
    }
  }, {
    "resource": {
      "resourceType": "Bundle",
      "id": "tests-Observation-bundle",
      "type": "transaction",
      "entry": [ {
        "resource": {
          "resourceType": "Observation",
          "id": "numer-EXM165-FHIR3-5",
          "meta": {
            "profile": [ "http://www.http://hl7.org/fhir/FHIR3/observation" ]
          },
          "status": "final",
          "code": {
            "coding": [ {
              "system": "http://loinc.org",
              "code": "85354-9",
              "display": "blood pressure"
            } ]
          },
          "subject": {
            "reference": "Patient/numer-EXM165-FHIR3"
          },
          "effectiveDateTime": "2019-11-01T05:00:00",
          "component": [ {
            "code": {
              "coding": [ {
                "system": "http://loinc.org",
                "code": "8462-4",
                "display": "Diastolic blood pressure"
              } ]
            },
            "valueQuantity": {
              "value": 89,
              "unit": "mm[Hg]"
            }
          } ]
        },
        "request": {
          "method": "PUT",
          "url": "Observation/numer-EXM165-FHIR3-5"
        }
      }, {
        "resource": {
          "resourceType": "Observation",
          "id": "numer-EXM165-FHIR3-4",
          "meta": {
            "profile": [ "http://www.http://hl7.org/fhir/FHIR3/observation" ]
          },
          "status": "final",
          "code": {
            "coding": [ {
              "system": "http://loinc.org",
              "code": "85354-9",
              "display": "blood pressure"
            } ]
          },
          "subject": {
            "reference": "Patient/numer-EXM165-FHIR3"
          },
          "effectiveDateTime": "2019-11-01T00:00:00",
          "component": [ {
            "code": {
              "coding": [ {
                "system": "http://loinc.org",
                "code": "8480-6",
                "display": "Systolic blood pressure"
              } ]
            },
            "valueQuantity": {
              "value": 139,
              "unit": "mm[Hg]"
            }
          } ]
        },
        "request": {
          "method": "PUT",
          "url": "Observation/numer-EXM165-FHIR3-4"
        }
      } ]
    },
    "request": {
      "method": "PUT",
      "url": "tests-Observation-bundle"
    }
  }, {
    "resource": {
      "resourceType": "Condition",
      "id": "numer-EXM165-FHIR3-2",
      "meta": {
        "profile": [ "http://hl7.org/fhir/us/core/StructureDefinition/us-core-condition" ]
      },
      "verificationStatus": "confirmed",
      "category": [ {
        "coding": [ {
          "system": "http://terminology.hl7.org/CodeSystem/condition-category",
          "code": "encounter-diagnosis",
          "display": "Encounter Diagnosis"
        } ]
      } ],
      "code": {
        "coding": [ {
          "system": "http://snomed.info/sct",
          "code": "65518004",
          "display": "Labile diastolic hypertension (disorder)"
        } ]
      },
      "subject": {
        "reference": "Patient/numer-EXM165-FHIR3"
      },
      "assertedDate": "2019-01-12T13:51:21-07:00"
    },
    "request": {
      "method": "PUT",
      "url": "Condition/numer-EXM165-FHIR3-2"
    }
  }, {
    "resource": {
      "resourceType": "Patient",
      "id": "numer-EXM165-FHIR3",
      "meta": {
        "profile": [ "http://hl7.org/fhir/us/core/StructureDefinition/us-core-patient" ]
      },
      "extension": [ {
        "url": "http://hl7.org/fhir/us/core/StructureDefinition/us-core-race",
        "extension": [ {
          "url": "ombCategory",
          "valueCoding": {
            "system": "urn:oid:2.16.840.1.113883.6.238",
            "code": "2054-5",
            "display": "Black or African American"
          }
        } ]
      }, {
        "url": "http://hl7.org/fhir/us/core/StructureDefinition/us-core-ethnicity",
        "extension": [ {
          "url": "ombCategory",
          "valueCoding": {
            "system": "urn:oid:2.16.840.1.113883.6.238",
            "code": "2186-5",
            "display": "Not Hispanic or Latino"
          }
        } ]
      } ],
      "identifier": [ {
        "use": "usual",
        "type": {
          "coding": [ {
            "system": "http://terminology.hl7.org/CodeSystem/v2-0203",
            "code": "MR",
            "display": "Medical Record Number"
          } ]
        },
        "system": "http://hospital.smarthealthit.org",
        "value": "999999993"
      } ],
      "name": [ {
        "family": "Doe",
        "given": [ "Jill" ]
      } ],
      "gender": "female",
      "birthDate": "1975-08-25"
    },
    "request": {
      "method": "PUT",
      "url": "Patient/numer-EXM165-FHIR3"
    }
  }, {
    "resource": {
      "resourceType": "Observation",
      "id": "numer-EXM165-FHIR3-5",
      "meta": {
        "profile": [ "http://www.http://hl7.org/fhir/FHIR3/observation" ]
      },
      "status": "final",
      "code": {
        "coding": [ {
          "system": "http://loinc.org",
          "code": "85354-9",
          "display": "blood pressure"
        } ]
      },
      "subject": {
        "reference": "Patient/numer-EXM165-FHIR3"
      },
      "effectiveDateTime": "2019-11-01T05:00:00",
      "component": [ {
        "code": {
          "coding": [ {
            "system": "http://loinc.org",
            "code": "8462-4",
            "display": "Diastolic blood pressure"
          } ]
        },
        "valueQuantity": {
          "value": 89,
          "unit": "mm[Hg]"
        }
      } ]
    },
    "request": {
      "method": "PUT",
      "url": "Observation/numer-EXM165-FHIR3-5"
    }
  }, {
    "resource": {
      "resourceType": "Measure",
      "id": "measure-EXM165-FHIR3-8.5.000",
      "meta": {
        "versionId": "2",
        "lastUpdated": "2019-12-12T22:16:52.350-07:00",
        "profile": [ "http://hl7.org/fhir/us/cqfmeasures/StructureDefinition/proportion-measure-cqfm" ]
      },
      "text": {
        "status": "generated",
        "div": "<div xmlns=\"http://www.w3.org/1999/xhtml\"><table style=\"width: 60%; border-bottom: none;\" class=\"header_table\">              <!-- <tr th:if=\"${resource.hasId()}\" style=\"vertical-align: top;\"><th style=\"background-color:#656565; width:20%\" scope=\"row\"><span class=\"td_label\">Id: </span></th><td style=\"width:80%\" colspan=\"3\"  th:narrative=\"${resource.id}\"></td></tr> --><tr style=\"vertical-align: top;\"><td scope=\"row\" style=\"background-color:#656565; width:20%\"><span class=\"td_label\">Measure Title</span></td><td colspan=\"1\" style=\"width:60%\"><h1 style=\"font-size:10px\">Controlling High Blood Pressure</h1></td><td scope=\"row\" style=\"background-color:#656565; width:10%\"><span class=\"td_label\">Measure ID</span></td><td colspan=\"1\" style=\"width:10%\"><h1 style=\"font-size:10px\">EXM165</h1></td></tr>              <!-- <th:block th:each=\"ident, iter : ${resource.identifier}\"><tr th:if=\"${ident.type.coding[0].code == 'CMS'}\" style=\"vertical-align: top;\"><td style=\"background-color:#656565; width:20%\" scope=\"row\"><span class=\"td_label\">eCQM Identifier (Measure Authoring Tool)</span></td><td style=\"width:30%\" th:narrative=\"${ident.value}\"></td><td style=\"background-color:#656565; width:20%\" scope=\"row\"><span class=\"td_label\">eCQM Version number</span></td><td style=\"width:30%\" th:narrative=\"${resource.version}\"></td></tr></th:block><th:block th:each=\"ident, iter : ${resource.identifier}\"><tr th:if=\"${ident.type.coding[0].code == 'NQF'}\" style=\"vertical-align: top;\"><td style=\"background-color:#656565; width:20%\" scope=\"row\"><span class=\"td_label\">NQF Number</span></td><td style=\"width:30%\" th:narrative=\"${ident.value}\"></td><td style=\"background-color:#656565; width:20%\" scope=\"row\"><span class=\"td_label\">GUID</span></td><td style=\"width:30%\" th:narrative=\"${resource.url}\"></td></tr></th:block> --><tr style=\"vertical-align: top;\"><td scope=\"row\" style=\"background-color:#656565; width:20%\"><span class=\"td_label\">Description</span></td><td colspan=\"3\" style=\"width:80%\"><div style=\"width:660px;overflow-x:hidden;overflow-y:auto\"><pre><p>Percentage of patients 18-85 years of age who had a diagnosis of hypertension overlapping the measurement period and whose most recent blood pressure was adequately controlled (&lt;140/90mmHg) during the measurement period</p>\r\n</pre>\r\n                </div>\r\n            </td>\r\n        </tr>\r\n        <tr>\r\n            <td scope=\"row\" style=\"background-color:#656565; width:20%\"><span class=\"td_label\">Measurement Period</span></td>\r\n            <td colspan=\"3\" style=\"width:80%\">January 1 - December 31</td>\r\n        </tr>\r\n                      <!-- <tr>\r\n            <td style=\"background-color:#656565; width:20%\" scope=\"row\"><span class=\"td_label\">Measure Steward</span></td>\r\n            <td style=\"width:80%\" colspan=\"3\" th:narrative=\"${resource.publisher}\"></td>\r\n        </tr>\r\n        <tr>\r\n            <td style=\"background-color:#656565; width:20%\" scope=\"row\"><span class=\"td_label\">Measure Developer</span></td>\r\n            <td style=\"width:80%\" colspan=\"3\" th:narrative=\"${resource.publisher}\"></td>\r\n        </tr> -->\r\n                      <!-- <tr th:if=\"${resource.hasDisclaimer()}\">\r\n            <td style=\"background-color:#656565; width:20%\" scope=\"row\"><span class=\"td_label\">Disclaimer</span></td>\r\n            <td style=\"width:80%\" colspan=\"3\">\r\n                <div style=\"width:660px;overflow-x:hidden;overflow-y:auto\">\r\n                    <pre th:text=\"${resource.disclaimer}\"></pre>\r\n                </div>\r\n            </td>\r\n        </tr> -->\r\n        <tr>\r\n            <td scope=\"row\" style=\"background-color:#656565; width:20%\"><span class=\"td_label\">Copyright and Disclaimer Notice</span></td>\r\n            <td colspan=\"3\" style=\"width:80%\">\r\n                <div style=\"width:660px;overflow-x:hidden;overflow-y:auto\">\r\n                    <pre>The performance Measure is not a clinical guideline and does not establish a standard of medical care, and has not been tested for all potential applications. THE MEASURE AND SPECIFICATIONS ARE PROVIDED &quot;AS IS&quot; WITHOUT WARRANTY OF ANY KIND.\r\n \r\nDue to technical limitations, registered trademarks are indicated by (R) or [R] and unregistered trademarks are indicated by (TM) or [TM].</pre>\r\n                    <br/>\r\n                    <pre>This Physician Performance Measure (Measure) and related data specifications were developed by the National Committee for Quality Assurance (NCQA). NCQA is not responsible for any use of the Measure. NCQA makes no representations, warranties, or endorsement about the quality of any organization or physician that uses or reports performance measures and NCQA has no liability to anyone who relies on such measures or specifications. NCQA holds a copyright in the Measure. The Measure can be reproduced and distributed, without modification, for noncommercial purposes (eg, use by healthcare providers in connection with their practices) without obtaining approval from NCQA. Commercial use is defined as the sale, licensing, or distribution of the Measure for commercial gain, or incorporation of the Measure into a product or service that is sold, licensed or distributed for commercial gain. All commercial uses or requests for modification must be approved by NCQA and are subject to a license at the discretion of NCQA. (C) 2012-2017 National Committee for Quality Assurance. All Rights Reserved. &lt;br&gt; Limited proprietary coding is contained in the Measure specifications for user convenience. Users of proprietary code sets should obtain all necessary licenses from the owners of the code sets. NCQA disclaims all liability for use or accuracy of any third party codes contained in the specifications. &lt;br&gt; CPT(R) contained in the Measure specifications is copyright 2004-2017 American Medical Association. LOINC(R) copyright 2004-2017 Regenstrief Institute, Inc. This material contains SNOMED Clinical Terms(R) (SNOMED CT[R] ) copyright 2004-2017 International Health Terminology Standards Development Organisation. ICD-10 copyright 2017 World Health Organization. All Rights Reserved.</pre>\r\n                </div>\r\n            </td>\r\n        </tr>\r\n        <tr>\r\n            <td scope=\"row\" style=\"background-color:#656565; width:20%\"><span class=\"td_label\">Clinical Recommendation Statement</span></td>\r\n            <td colspan=\"3\" style=\"width:80%\">\r\n                <div style=\"width:660px;overflow-x:hidden;overflow-y:auto\"><p>The U.S. Preventive Services Task Force (2015) recommends  screening for high blood pressure in adults age 18 years and older. This is a grade A recommendation.</p>\r\n<p>American College of Cardiology/American Heart Association (2017)<br/>\r\n-For adults with confirmed hypertension and known CVD or 10-year ASCVD event risk of 10% or higher, a blood pressure target of less than 130/80 mmHg is recommended<br/>\r\n-For adults with confirmed hypertension, without additional markers of increased CVD risk, a blood pressure target of less than 130/80 mmHg may be reasonable (Note: clinical trial evidence is strongest for a target blood pressure of 140/90 mmHg in this population. However observational studies suggest that these individuals often have a high lifetime risk and would benefit from blood pressure control earlier in life)</p>\r\n<p>American College of Physicians and the American Academy of Family Physicians (2017):<br/>\r\n-Initiate intensifying pharmacologic treatment in adults aged 60 and older at high cardiovascular risk, based on individualized assessment, to achieve a target systolic blood pressure of less than 140 mmHg (Grade: weak recommendation, quality of evidence: low)<br/>\r\n-Initiate intensifying pharmacologic treatment in adults aged 60 and older with a history of stroke or transient ischemic attack to achieve a target systolic blood pressure of less than 140 mmHg to reduce the risk of recurrent stroke (Grade: weak recommendation, quality of evidence: moderate)</p>\r\n<p>American Diabetes Association (2018):<br/>\r\nMost patients with diabetes and hypertension should be treated to a systolic blood pressure goal of &lt;140 mmHg and a diastolic blood pressure goal of &lt;90 mmHg (Level of evidence: A)</p>\r\n<p>Report from the Eighth Joint National Committee (2014)<br/>\r\n-In the general population younger than 60 years, initiate pharmacologic treatment to lower blood pressure at diastolic blood pressure (DBP) of 90 mmHg or higher and treat to a goal of DBP of lower than 90 mmHg (Grade: A (for ages 30-59), Grade: E (for ages 18-29))<br/>\r\n-In the general population younger than 60 years, initiate pharmacologic treatment to lower blood pressure at systolic blood pressure (SBP) to 140 mmHg or higher and treat to a goal of SBP of lower than 140 mmHg (Grade: E)<br/>\r\n-In the general population aged 60 years and older, initiate pharmacologic treatment to lower blood pressure at SBP of 150 mmHg or higher or a DBP of 90 mmHg or higher and treat to a goal of SBP lower than 150 mmHg and goal of DBP lower than 90 mmHg</p>\r\n</div>\r\n            </td>\r\n        </tr>\r\n        \r\n            <tr style=\"vertical-align: top;\">\r\n                <td rowspan=\"14\" scope=\"row\" style=\"background-color:#656565; width:20%\"><span class=\"td_label\">References</span></td>\r\n                <td colspan=\"3\" style=\"width:80%\">\r\n                    <div style=\"width:660px;overflow-x:hidden;overflow-y:auto\">\r\n                        <pre>American Diabetes Association. (2018). 9. Cardiovascular disease and risk management: Standards of medical care in diabetes 2018. Diabetes Care, 41(Suppl. 1), S86-S104.</pre>\r\n                    </div>\r\n                </td>\r\n            </tr>\r\n        \r\n        \r\n            <tr style=\"vertical-align: top;\">\r\n                \r\n                <td colspan=\"3\" style=\"width:80%\">\r\n                    <div style=\"width:660px;overflow-x:hidden;overflow-y:auto\">\r\n                        <pre>Benjamin, E. J., Blaha, M. J., Chiuve, S. E., et al. (2017). Heart disease and stroke statistics-2017 update: A report from the American Heart Association. Circulation, 135(10), e146-e603.doi: 10.1161/CIR.0000000000000485</pre>\r\n                    </div>\r\n                </td>\r\n            </tr>\r\n        \r\n        \r\n            <tr style=\"vertical-align: top;\">\r\n                \r\n                <td colspan=\"3\" style=\"width:80%\">\r\n                    <div style=\"width:660px;overflow-x:hidden;overflow-y:auto\">\r\n                        <pre>Centers for Disease Control and Prevention. (2012). Vital signs: Getting blood pressure under control. Retrieved from https://www.cdc.gov/vitalsigns/hypertension/index.html</pre>\r\n                    </div>\r\n                </td>\r\n            </tr>\r\n        \r\n        \r\n            <tr style=\"vertical-align: top;\">\r\n                \r\n                <td colspan=\"3\" style=\"width:80%\">\r\n                    <div style=\"width:660px;overflow-x:hidden;overflow-y:auto\">\r\n                        <pre>Centers for Disease Control and Prevention. Division for Heart Disease and Stroke Prevention. (2016). High blood pressure fact sheet. Retrieved from https://www.cdc.gov/dhdsp/data_statistics/fact_sheets/fs_bloodpressure.htmhttps://www.cdc.gov/dhdsp/data_statistics/fact_sheets/fs_bloodpressure.htm. </pre>\r\n                    </div>\r\n                </td>\r\n            </tr>\r\n        \r\n        \r\n            <tr style=\"vertical-align: top;\">\r\n                \r\n                <td colspan=\"3\" style=\"width:80%\">\r\n                    <div style=\"width:660px;overflow-x:hidden;overflow-y:auto\">\r\n                        <pre>Centers for Disease Control and Prevention, National Center for Health Statistics. (2015). Underlying Cause of Death 1999-2013 on CDC WONDER Online Database. Data are from the Multiple Cause of Death Files, 1999-2013, as compiled from data provided by the 57 vital statistics jurisdictions through the Vital Statistics Cooperative Program. Retrieved from http://wonder.cdc.gov/ucd-icd10.html</pre>\r\n                    </div>\r\n                </td>\r\n            </tr>\r\n        \r\n        \r\n            <tr style=\"vertical-align: top;\">\r\n                \r\n                <td colspan=\"3\" style=\"width:80%\">\r\n                    <div style=\"width:660px;overflow-x:hidden;overflow-y:auto\">\r\n                        <pre>Crim, M. T., Yoon, S. S., Ortiz, E., et al. (2012). National surveillance definitions for hypertension prevalence and control among adults. Circulation: Cardiovascular Quality and Outcomes. 2012, ;5(3), :343-–351. doi: 10.1161/ CIRCOUTCOMES.111.963439.</pre>\r\n                    </div>\r\n                </td>\r\n            </tr>\r\n        \r\n        \r\n            <tr style=\"vertical-align: top;\">\r\n                \r\n                <td colspan=\"3\" style=\"width:80%\">\r\n                    <div style=\"width:660px;overflow-x:hidden;overflow-y:auto\">\r\n                        <pre>James, P. A., Oparil, S., Carter, B. L., et al (2014). 2014 evidence-based guideline for the management of high blood pressure in adults: Report from the panel members appointed to the Eighth Joint National Committee (JNC8). JAMA. 311(5), 507-520. doi:10.1001/jama.2013.284427</pre>\r\n                    </div>\r\n                </td>\r\n            </tr>\r\n        \r\n        \r\n            <tr style=\"vertical-align: top;\">\r\n                \r\n                <td colspan=\"3\" style=\"width:80%\">\r\n                    <div style=\"width:660px;overflow-x:hidden;overflow-y:auto\">\r\n                        <pre>Moran, A. E., Odden, M. C., Thanataveerat, A., et al.Tzong KY, Rasmussen PW, Guzman D, Williams L, Bibbins-Domingo K, Coxson PG, Goldman L. (2015). Cost-effectiveness of hypertension therapy according to 2014 guidelines. [published correction appears in N Engl J. Med. 2015;372:1677]. New England Journal of Medicine,. 2015 ;372, :447-–455. doi:  10.1056/NEJMsa1406751. [published correction appears on page 1677] \r\nFarley TA, Dalal MA, Mostashari F, Frieden TR. Deaths preventable in the US by improvements in the use of clinical preventive services. Am J Prev Med. 2010;38:600-9.</pre>\r\n                    </div>\r\n                </td>\r\n            </tr>\r\n        \r\n        \r\n            <tr style=\"vertical-align: top;\">\r\n                \r\n                <td colspan=\"3\" style=\"width:80%\">\r\n                    <div style=\"width:660px;overflow-x:hidden;overflow-y:auto\">\r\n                        <pre>Patel, S. A., Winkel, M., Ali, M. K., et al. (2015). Cardiovascular mortality associated with 5 leading risk factors: National and state preventable fractions estimated from survey data. Annals of Internal Medicine, 163(4), :245–253. doi: 10.7326/M14-1753</pre>\r\n                    </div>\r\n                </td>\r\n            </tr>\r\n        \r\n        \r\n            <tr style=\"vertical-align: top;\">\r\n                \r\n                <td colspan=\"3\" style=\"width:80%\">\r\n                    <div style=\"width:660px;overflow-x:hidden;overflow-y:auto\">\r\n                        <pre>Qaseem, A., Wilt, T. J., Rich, R., et al. (2017). Pharmacologic treatment of hypertension in adults aged 60 years or older to higher versus lower blood pressure targets: A clinical practice guideline from the American College of Physicians and the American Academy of Family Physicians. Annals of Internal Medicine, 166(6), 430-437.</pre>\r\n                    </div>\r\n                </td>\r\n            </tr>\r\n        \r\n        \r\n            <tr style=\"vertical-align: top;\">\r\n                \r\n                <td colspan=\"3\" style=\"width:80%\">\r\n                    <div style=\"width:660px;overflow-x:hidden;overflow-y:auto\">\r\n                        <pre>SPRINT Research Group,; Wright, J. T., Jr., Williamson,  J. D., et al. (2015). A randomized trial of intensive versus standard blood-pressure control. New England Journal of Medicine, 373(22), 2103–2116.</pre>\r\n                    </div>\r\n                </td>\r\n            </tr>\r\n        \r\n        \r\n            <tr style=\"vertical-align: top;\">\r\n                \r\n                <td colspan=\"3\" style=\"width:80%\">\r\n                    <div style=\"width:660px;overflow-x:hidden;overflow-y:auto\">\r\n                        <pre>U.S. Preventive Services Task Force. (2015). Screening for high blood pressure in adults: U.S. Preventive Services Task Force recommendation statement. Annals of Internal Medicine, 163(10), 778-787.</pre>\r\n                    </div>\r\n                </td>\r\n            </tr>\r\n        \r\n        \r\n            <tr style=\"vertical-align: top;\">\r\n                \r\n                <td colspan=\"3\" style=\"width:80%\">\r\n                    <div style=\"width:660px;overflow-x:hidden;overflow-y:auto\">\r\n                        <pre>Whelton, P. K., Carey, R. M., Aronow, W. S., et al. (2017). Guideline for the prevention, detection, evaluation, and management of high blood pressure in adults: A report of the American College of Cardiology/American Heart Association Task Force on Clinical Practice Guidelines. Journal of the American College of Cardiology, . https://doi.org/10.1161/HYP.0000000000000065</pre>\r\n                    </div>\r\n                </td>\r\n            </tr>\r\n        \r\n        \r\n            <tr style=\"vertical-align: top;\">\r\n                \r\n                <td colspan=\"3\" style=\"width:80%\">\r\n                    <div style=\"width:660px;overflow-x:hidden;overflow-y:auto\">\r\n                        <pre>Yoon, S. S., Fryar, C. D., &amp; Carroll, M. D. (2015). Hypertension prevalence and control among adults: United States, 2011-2014. NCHS Data Brief No. 220. Hyattsville, MD: National Center for Health Statistics.</pre>\r\n                    </div>\r\n                </td>\r\n            </tr>\r\n        \r\n        <tr>\r\n            <td colspan=\"4\" scope=\"row\" style=\"background-color:#656565; width:100%\"><span class=\"td_label\">Characteristics</span></td>\r\n        </tr>\r\n        <tr>\r\n            <td scope=\"row\" style=\"width:20%\"><span>Scoring</span></td>\r\n            <td colspan=\"3\" style=\"width:80%\">Proportion</td>\r\n        </tr>\r\n                      <!-- <tr th:if=\"${resource.hasCompositeScoring()}\">\r\n            <td style=\"width:20%\" scope=\"row\"><span class=\"td_label\">Composite Scoring</span></td>\r\n            <td style=\"width:80%\" colspan=\"3\" th:narrative=\"${resource.compositeScoring.getText().substring(0, 1).toUpperCase() + resource.compositeScoring.getText().substring(1)}\"></td>\r\n        </tr> -->\r\n        \r\n            <tr style=\"vertical-align: top;\">\r\n                <td rowspan=\"1\" scope=\"row\" style=\"width:20%\"><span>Type</span></td>\r\n                <td colspan=\"3\" style=\"width:80%\">Process</td>\r\n            </tr>\r\n        \r\n                      <!-- <tr th:if=\"${resource.hasStatus()}\" style=\"vertical-align: top;\">\r\n            <td style=\"background-color:#656565; width:20%\" scope=\"row\"><span class=\"td_label\">Status</span></td>\r\n            <td style=\"width:80%\" colspan=\"3\" th:narrative=\"${resource.status.toString().substring(0, 1).toUpperCase() + resource.status.toString().substring(1).toLowerCase()}\"></td>\r\n        </tr>\r\n        <tr th:if=\"${resource.hasPurpose()}\" style=\"vertical-align: top;\">\r\n            <td style=\"background-color:#656565; width:20%\" scope=\"row\"><span class=\"td_label\">Purpose</span></td>\r\n            <td style=\"width:80%\" colspan=\"3\" th:narrative=\"${resource.purpose}\"></td>\r\n        </tr>\r\n        <tr th:if=\"${resource.hasUsage()}\" style=\"vertical-align: top;\" >\r\n            <td style=\"background-color:#656565; width:20%\" scope=\"row\"><span class=\"td_label\">Usage</span></td>\r\n            <td style=\"width:80%\" colspan=\"3\" th:narrative=\"${resource.usage}\"></td>\r\n        </tr>\r\n        <th:block th:each=\"context, iter : ${resource.useContext}\" >\r\n            <tr style=\"vertical-align: top;\">\r\n                <td th:if=\"${iter.index == 0}\" th:rowspan=\"${iter.size}\" style=\"background-color:#656565; width:20%\" scope=\"row\"><span class=\"td_label\">Use Context</span></td>\r\n                <td style=\"width:80%\" colspan=\"3\" th:narrative=\"${context}\"></td>\r\n            </tr>\r\n        </th:block>\r\n        <th:block th:each=\"topics, iter : ${resource.topic}\" >\r\n            <tr style=\"vertical-align: top;\">\r\n                <td th:if=\"${iter.index == 0}\" th:rowspan=\"${iter.size}\" style=\"background-color:#656565; width:20%\" scope=\"row\"><span class=\"td_label\">Topic</span></td>\r\n                <td style=\"width:80%\" colspan=\"3\" th:narrative=\"${topics}\"></td>\r\n            </tr>\r\n        </th:block>\r\n        <th:block th:each=\"cont, iter : ${resource.contributor}\" >\r\n            <tr style=\"vertical-align: top;\">\r\n                <td th:if=\"${iter.index == 0}\" th:rowspan=\"${iter.size}\" style=\"background-color:#656565; width:20%\" scope=\"row\"><span class=\"td_label\">Contributor</span></td>\r\n                <td style=\"width:80%\" colspan=\"3\">\r\n                    <b><span th:narrative=\"${cont.type.toCode()}\"></span>: </b><span th:narrative=\"${cont.name}\"></span>\r\n                </td>\r\n            </tr>\r\n        </th:block> -->\r\n                      <!-- <th:block th:each=\"lib, iter : ${resource.library}\" >\r\n            <tr style=\"vertical-align: top;\">\r\n                <td th:if=\"${iter.index == 0}\" th:rowspan=\"${iter.size}\" style=\"background-color:#656565; width:20%\" scope=\"row\"><span class=\"td_label\">Library</span></td>\r\n                <td style=\"width:80%\" colspan=\"3\">\r\n                    <p th:if=\"${lib.hasIdentifier()}\"><b>identifier: </b><span th:narrative=\"${lib.identifier}\"></span></p>\r\n                    <p th:if=\"${lib.hasReference()}\"><b>reference: </b><span th:narrative=\"${lib.reference}\"></span></p>\r\n                    <p th:if=\"${lib.hasDisplay()}\"><b>display: </b><span th:narrative=\"${lib.display}\"></span></p>\r\n                </td>\r\n            </tr>\r\n        </th:block> -->\r\n        \r\n                      <!-- <tr th:if=\"${resource.hasRateAggregation()}\" >\r\n            <td style=\"background-color:#656565; width:20%\" scope=\"row\"><span class=\"td_label\">Rate Aggregation</span></td>\r\n            <td style=\"width:80%\" colspan=\"3\">\r\n                <div style=\"width:660px;overflow-x:hidden;overflow-y:auto\">\r\n                    <pre th:text=\"${resource.rateAggregation}\"></pre>\r\n                </div>\r\n            </td>\r\n        </tr>\r\n        <tr th:if=\"${resource.hasRationale()}\">\r\n            <td style=\"background-color:#656565; width:20%\" scope=\"row\"><span class=\"td_label\">Rationale</span></td>\r\n            <td style=\"width:80%\" colspan=\"3\">\r\n                <div style=\"width:660px;overflow-x:hidden;overflow-y:auto\">\r\n                    <pre th:text=\"${resource.rationale}\"></pre>\r\n                </div>\r\n            </td>\r\n        </tr> -->\r\n        <tr>\r\n            <td scope=\"row\" style=\"width:20%\"><span>Improvement Notation</span></td>\r\n            <td colspan=\"3\" style=\"width:80%\">A higher rate indicates better performance.</td>\r\n            \r\n        </tr>\r\n        <tr>\r\n            <td scope=\"row\" style=\"width:20%\"><span>Guidance</span></td>\r\n            <td colspan=\"3\" style=\"width:80%\">\r\n                <div style=\"width:660px;overflow-x:hidden;overflow-y:auto\"><p>In reference to the numerator element, only blood pressure readings performed by a clinician or a remote monitoring device are acceptable  for numerator compliance with this measure.</p>\r\n<p>Do not include BP readings:<br/>\r\n-Taken during an acute inpatient stay or an ED visit<br/>\r\n-Taken on the same day as a diagnostic test or diagnostic or therapeutic procedure that requires a change in diet or change in medication on or one day before the day of the test or procedure, with the exception of fasting blood tests.<br/>\r\n-Reported by or taken by the member</p>\r\n<p>If no blood pressure is recorded during the measurement period, the patient's blood pressure is assumed &quot;not controlled.&quot;</p>\r\n<p>If there are multiple blood pressure readings on the same day, use the lowest systolic and the lowest diastolic reading as the most recent blood pressure reading.</p>\r\n</div>\r\n            </td>\r\n        </tr>\r\n        <tr>\r\n            <td colspan=\"4\" scope=\"row\" style=\"background-color:#656565; width:100%\"><span class=\"td_label\">Definitions</span></td>\r\n        </tr>\r\n        \r\n        \r\n                      <!-- <th:block th:each=\"groups, iter : ${resource.uniquePopulationGroup}\" >\r\n            <tr style=\"vertical-align: top;\">\r\n                <td style=\"background-color:#656565; width:20%\" scope=\"row\"><span class=\"td_label\" th:text=\"${groups.identifier.value}\"></span></td>\r\n                <td style=\"width:80%\" colspan=\"3\">\r\n                    <div style=\"width:660px;overflow-x:hidden;overflow-y:auto\">\r\n                        <pre th:text=\"${pops.description}\"></pre>\r\n                    </div>\r\n                </td>\r\n            </tr>\r\n        </th:block> -->\r\n    </table>\r\n    <table style=\"width: 60%; border-top: none; border-bottom: none\" class=\"header_table\">\r\n        \r\n    </table>\r\n    <table style=\"width: 60%; border-top: none;\" class=\"header_table\">\r\n                      <!-- <th:block th:each=\"supples, iter : ${resource.supplementalData}\">\r\n            <tr>\r\n                <th th:if=\"${iter.index == 0}\" th:rowspan=\"${iter.size}\" scope=\"row\"><b>Supplemental Data:</b></th>\r\n                <td style=\"width:80%\" colspan=\"3\" >\r\n                    <p style=\"margin-bottom: 5px;\" th:narrative=\"${supples.identifier}\"></p>\r\n                    <p style=\"margin-bottom: 5px;\" th:each=\"uses : ${supples.usage}\">\r\n                        <b>usage: </b>\r\n                        <span th:narrative=\"${uses}\"></span>\r\n                    </p>\r\n                    <p style=\"margin-bottom: 5px;\" th:if=\"${supples.hasCriteria()}\">\r\n                        <b>criteria: </b>\r\n                        <span th:narrative=\"${supples.criteria}\"></span>\r\n                    </p>\r\n                    <p style=\"margin-bottom: 5px;\" th:if=\"${supples.hasPath()}\">\r\n                        <b>path: </b>\r\n                        <span th:narrative=\"${supples.path}\"></span>\r\n                    </p>\r\n                </td>\r\n            </tr>\r\n        </th:block> -->\r\n                      <!-- <th:block th:each=\"param, iter : ${resource.parameter}\">\r\n            <tr style=\"vertical-align: top;\">\r\n                <th th:if=\"${iter.index == 0}\" th:rowspan=\"${iter.size}\" scope=\"row\"><b>Parameter: </b></th>\r\n                <td style=\"width:80%\" colspan=\"3\" >\r\n                    <span th:if=\"${param.hasName()}\">\r\n                        <b>name: </b>\r\n                        <span th:narrative=\"${param.name}\"></span>\r\n                        <br/>\r\n                    </span>\r\n                    <b>use: </b>\r\n                    <span th:narrative=\"${param.use.toCode()}\"></span>\r\n                    <br/>\r\n                    <span th:if=\"${param.hasMin()}\">\r\n                        <b>minimum cardinality: </b>\r\n                        <span th:narrative=\"${param.min}\"></span>\r\n                        <br/>\r\n                    </span>\r\n                    <span th:if=\"${param.hasMax()}\">\r\n                        <b>maximum cardinality: </b>\r\n                        <span th:narrative=\"${param.max}\"></span>\r\n                        <br/>\r\n                    </span>\r\n                    <b>type: </b>\r\n                    <span th:narrative=\"${param.type}\"></span>\r\n                    <br/>\r\n                    <span th:if=\"${param.hasDocumentation()}\">\r\n                        <b>documentation: </b>\r\n                        <span th:narrative=\"${param.documentation}\"></span>\r\n                        <br/>\r\n                    </span>\r\n                    <span th:if=\"${param.hasProfile()}\">\r\n                        <b>profile: </b>\r\n                        <span th:narrative=\"${param.profile}\"></span>\r\n                        <br/>\r\n                    </span>\r\n                    <p style=\"margin-bottom: 5px;\"></p>\r\n                </td>\r\n            </tr>\r\n        </th:block> -->\r\n                      <!-- <th:block th:each=\"dataReq, iter : ${resource.dataRequirement}\">\r\n            <tr style=\"vertical-align: top;\">\r\n                    <th th:if=\"${iter.index == 0}\" th:rowspan=\"${iter.size}\" scope=\"row\" ><b>Data Requirements: </b></th>\r\n                    <td style=\"width:80%\" colspan=\"3\" th:narrative=\"${dataReq}\"></td>\r\n            </tr>\r\n        </th:block> -->\r\n    </table>\r\n  <h2><a name=\"toc\">Table of Contents</a></h2>\r\n  <ul style=\"padding-left: 50px;\">\r\n   <li><a href=\"#d1e405\">Population Criteria</a></li>\r\n   <li><a href=\"#d1e649\">Definitions</a></li>\r\n   <li><a href=\"#d1e650\">Functions</a></li>\r\n   <li><a href=\"#d1e555\">Terminology</a></li>\r\n   <li><a href=\"#d1e647\">Data Criteria (QDM Data Elements)</a></li>\r\n   <li><a href=\"#d1e767\">Supplemental Data Elements</a></li>\r\n   <li><a href=\"#d1e879\">Risk Adjustment Variables</a></li>\r\n  </ul>\r\n  <div style=\"float:left; background:teal; height:3px; width:80%\"/>\r\n  \r\n    <pre><br/></pre>\r\n    <h3><a name=\"d1e405\" href=\"#toc\">Population Criteria</a></h3>\r\n    <div>\r\n    <ul style=\"list-style:none;padding-left:10px;\">\r\n        <li style=\"list-style:none;padding-left:0px;\" class=\"list-unstyled\">\r\n        \r\n        <div class=\"treeview hover p-l-10\">\r\n        <ul class=\"list-unstyled\">\r\n        <li class=\"list-unstyled\"><input id=\"Initial Population\" type=\"checkbox\"/><label for=\"Initial Population\" class=\"list-header\"><strong>Initial Population</strong></label>\r\n            <ul class=\"code\">\r\n            <li class=\"list-unstyled\">\r\n            <div class=\"treeview hover p-l-10\">\r\n            <ul>\r\n                <li style=\"padding-left: 0px;\">\r\n                <div>\r\n                <pre class=\"cql-definition-body\">\tCommon.CalendarAgeInYearsAt(FHIRHelpers.ToDate(Patient.birthDate), end of &quot;Measurement Period&quot;) between 18 and 85\r\n\t\tand exists &quot;Essential Hypertension Diagnosis&quot;\r\n\t\tand exists AdultOutpatientEncounters.&quot;Qualifying Encounters&quot;(&quot;Measurement Period&quot;)</pre>\r\n                </div></li>\r\n            </ul>p;\r\n            </div></li>\r\n            </ul></li>\r\n        </ul>\r\n        </div>\r\n        \r\n        \r\n        <div class=\"treeview hover p-l-10\">\r\n        <ul class=\"list-unstyled\">\r\n        <li class=\"list-unstyled\"><input id=\"Numerator\" type=\"checkbox\"/><label for=\"Numerator\" class=\"list-header\"><strong>Numerator</strong></label>\r\n            <ul class=\"code\">\r\n            <li class=\"list-unstyled\">\r\n            <div class=\"treeview hover p-l-10\">\r\n            <ul>\r\n                <li style=\"padding-left: 0px;\">\r\n                <div>\r\n                <pre class=\"cql-definition-body\">\t&quot;Has Diastolic Blood Pressure Less Than 90&quot;\r\n\t\tand &quot;Has Systolic Blood Pressure Less Than 140&quot;</pre>\r\n                </div></li>\r\n            </ul>p;\r\n            </div></li>\r\n            </ul></li>\r\n        </ul>\r\n        </div>\r\n        \r\n        \r\n        <div class=\"treeview hover p-l-10\">\r\n        <ul class=\"list-unstyled\">\r\n        <li class=\"list-unstyled\"><input id=\"Denominator\" type=\"checkbox\"/><label for=\"Denominator\" class=\"list-header\"><strong>Denominator</strong></label>\r\n            <ul class=\"code\">\r\n            <li class=\"list-unstyled\">\r\n            <div class=\"treeview hover p-l-10\">\r\n            <ul>\r\n                <li style=\"padding-left: 0px;\">\r\n                <div>\r\n                <pre class=\"cql-definition-body\">\t&quot;Initial Population&quot;</pre>\r\n                </div></li>\r\n            </ul>p;\r\n            </div></li>\r\n            </ul></li>\r\n        </ul>\r\n        </div>\r\n        \r\n        \r\n        <div class=\"treeview hover p-l-10\">\r\n        \r\n        </div>\r\n        \r\n        \r\n    </li>\r\n    </ul>\r\n    </div>\r\n\r\n  <h3><a name=\"d1e649\" href=\"#toc\">Definitions</a></h3>\r\n  <div>\r\n   <ul style=\"list-style:none;padding-left: 10px;\">\r\n    <li style=\"list-style:none;\" class=\"list-unstyled\">\r\n     <div>\r\n      <ul style=\"list-style:none;padding-left:0;\" class=\"list-unstyled\">\r\n       <li class=\"list-unstyled\">\r\n        <div class=\"treeview hover p-l-10\">\r\n         <input id=\"Blood Pressure Days\" type=\"checkbox\"/>\r\n         <label for=\"Blood Pressure Days\" class=\"list-header\"><strong>Blood Pressure Days</strong></label>\r\n         <ul style=\"margin-right: 20%; opacity: 1;\" class=\"code\">\r\n          <li class=\"list-unstyled\">\r\n           <div>\r\n            <ul style=\"padding-left: 0px;\">\r\n             <li style=\"padding-left: 0px;\" class=\"list-unstyled\">\r\n              <div>\r\n               <pre class=\"cql-definition-body\">\t( ( &quot;Qualifying Diastolic Blood Pressure Reading&quot; DBPExam\r\n\t\t\t\treturn date from DBPExam.effective\r\n\t\t)\r\n\t\t\tintersect ( &quot;Qualifying Systolic Blood Pressure Reading&quot; SBPExam\r\n\t\t\t\t\treturn date from SBPExam.effective\r\n\t\t\t)\r\n\t)</pre>\r\n              </div></li>\r\n            </ul>p;\r\n           </div></li>\r\n         </ul>\r\n        </div></li>\r\n      </ul>\r\n     </div></li>\r\n   </ul>\r\n  </div>\r\n  <div>\r\n   <ul style=\"list-style:none;padding-left: 10px;\">\r\n    <li style=\"list-style:none;\" class=\"list-unstyled\">\r\n     <div>\r\n      <ul style=\"list-style:none;padding-left:0;\" class=\"list-unstyled\">\r\n       <li class=\"list-unstyled\">\r\n        <div class=\"treeview hover p-l-10\">\r\n         <input id=\"Denominator\" type=\"checkbox\"/>\r\n         <label for=\"Denominator\" class=\"list-header\"><strong>Denominator</strong></label>\r\n         <ul style=\"margin-right: 20%; opacity: 1;\" class=\"code\">\r\n          <li class=\"list-unstyled\">\r\n           <div>\r\n            <ul style=\"padding-left: 0px;\">\r\n             <li style=\"padding-left: 0px;\" class=\"list-unstyled\">\r\n              <div>\r\n               <pre class=\"cql-definition-body\">\t&quot;Initial Population&quot;</pre>\r\n              </div></li>\r\n            </ul>p;\r\n           </div></li>\r\n         </ul>\r\n        </div></li>\r\n      </ul>\r\n     </div></li>\r\n   </ul>\r\n  </div>\r\n  <div>\r\n   <ul style=\"list-style:none;padding-left: 10px;\">\r\n    <li style=\"list-style:none;\" class=\"list-unstyled\">\r\n     <div>\r\n      <ul style=\"list-style:none;padding-left:0;\" class=\"list-unstyled\">\r\n       <li class=\"list-unstyled\">\r\n        <div class=\"treeview hover p-l-10\">\r\n         <input id=\"End Stage Renal Disease Encounter\" type=\"checkbox\"/>\r\n         <label for=\"End Stage Renal Disease Encounter\" class=\"list-header\"><strong>End Stage Renal Disease Encounter</strong></label>\r\n         <ul style=\"margin-right: 20%; opacity: 1;\" class=\"code\">\r\n          <li class=\"list-unstyled\">\r\n           <div>\r\n            <ul style=\"padding-left: 0px;\">\r\n             <li style=\"padding-left: 0px;\" class=\"list-unstyled\">\r\n              <div>\r\n               <pre class=\"cql-definition-body\">\t[&quot;Encounter&quot;: &quot;ESRD Monthly Outpatient Services&quot;] ESRDEncounter\r\n\t\twhere ESRDEncounter.status.value in { 'planned', 'arrived', 'triaged', 'in-progress', 'onleave', 'finished' }\r\n\t\t  and ESRDEncounter.period starts before end of &quot;Measurement Period&quot;</pre>\r\n              </div></li>\r\n            </ul>p;\r\n           </div></li>\r\n         </ul>\r\n        </div></li>\r\n      </ul>\r\n     </div></li>\r\n   </ul>\r\n  </div>\r\n  <div>\r\n   <ul style=\"list-style:none;padding-left: 10px;\">\r\n    <li style=\"list-style:none;\" class=\"list-unstyled\">\r\n     <div>\r\n      <ul style=\"list-style:none;padding-left:0;\" class=\"list-unstyled\">\r\n       <li class=\"list-unstyled\">\r\n        <div class=\"treeview hover p-l-10\">\r\n         <input id=\"End Stage Renal Disease Procedures\" type=\"checkbox\"/>\r\n         <label for=\"End Stage Renal Disease Procedures\" class=\"list-header\"><strong>End Stage Renal Disease Procedures</strong></label>\r\n         <ul style=\"margin-right: 20%; opacity: 1;\" class=\"code\">\r\n          <li class=\"list-unstyled\">\r\n           <div>\r\n            <ul style=\"padding-left: 0px;\">\r\n             <li style=\"padding-left: 0px;\" class=\"list-unstyled\">\r\n              <div>\r\n               <pre class=\"cql-definition-body\">\t( [&quot;Procedure&quot;: &quot;Vascular Access for Dialysis&quot;]\r\n\t\tunion [&quot;Procedure&quot;: &quot;Kidney Transplant&quot;]\r\n\t\tunion [&quot;Procedure&quot;: &quot;Dialysis Services&quot;] ) ESRDProcedure\r\n\t\twhere ESRDProcedure.status = 'completed'\r\n      and ESRDProcedure.performed starts before end of &quot;Measurement Period&quot;</pre>\r\n              </div></li>\r\n            </ul>p;\r\n           </div></li>\r\n         </ul>\r\n        </div></li>\r\n      </ul>\r\n     </div></li>\r\n   </ul>\r\n  </div>\r\n  <div>\r\n   <ul style=\"list-style:none;padding-left: 10px;\">\r\n    <li style=\"list-style:none;\" class=\"list-unstyled\">\r\n     <div>\r\n      <ul style=\"list-style:none;padding-left:0;\" class=\"list-unstyled\">\r\n       <li class=\"list-unstyled\">\r\n        <div class=\"treeview hover p-l-10\">\r\n         <input id=\"Essential Hypertension Diagnosis\" type=\"checkbox\"/>\r\n         <label for=\"Essential Hypertension Diagnosis\" class=\"list-header\"><strong>Essential Hypertension Diagnosis</strong></label>\r\n         <ul style=\"margin-right: 20%; opacity: 1;\" class=\"code\">\r\n          <li class=\"list-unstyled\">\r\n           <div>\r\n            <ul style=\"padding-left: 0px;\">\r\n             <li style=\"padding-left: 0px;\" class=\"list-unstyled\">\r\n              <div>\r\n               <pre class=\"cql-definition-body\">\t[&quot;Condition&quot;: &quot;Essential Hypertension&quot;] Hypertension\r\n    where Hypertension.verificationStatus = 'confirmed'\r\n     and (Hypertension.assertedDate 6 months or less on or after start of &quot;Measurement Period&quot;\r\n      or Hypertension.assertedDate before end of &quot;Measurement Period&quot;\r\n    )</pre>\r\n              </div></li>\r\n            </ul>p;\r\n           </div></li>\r\n         </ul>\r\n        </div></li>\r\n      </ul>\r\n     </div></li>\r\n   </ul>\r\n  </div>\r\n  <div>\r\n   <ul style=\"list-style:none;padding-left: 10px;\">\r\n    <li style=\"list-style:none;\" class=\"list-unstyled\">\r\n     <div>\r\n      <ul style=\"list-style:none;padding-left:0;\" class=\"list-unstyled\">\r\n       <li class=\"list-unstyled\">\r\n        <div class=\"treeview hover p-l-10\">\r\n         <input id=\"Has Diastolic Blood Pressure Less Than 90\" type=\"checkbox\"/>\r\n         <label for=\"Has Diastolic Blood Pressure Less Than 90\" class=\"list-header\"><strong>Has Diastolic Blood Pressure Less Than 90</strong></label>\r\n         <ul style=\"margin-right: 20%; opacity: 1;\" class=\"code\">\r\n          <li class=\"list-unstyled\">\r\n           <div>\r\n            <ul style=\"padding-left: 0px;\">\r\n             <li style=\"padding-left: 0px;\" class=\"list-unstyled\">\r\n              <div>\r\n               <pre class=\"cql-definition-body\">\t&quot;Lowest Diastolic Reading on Most Recent Blood Pressure Day&quot;.value &lt; 90</pre>\r\n              </div></li>\r\n            </ul>p;\r\n           </div></li>\r\n         </ul>\r\n        </div></li>\r\n      </ul>\r\n     </div></li>\r\n   </ul>\r\n  </div>\r\n  <div>\r\n   <ul style=\"list-style:none;padding-left: 10px;\">\r\n    <li style=\"list-style:none;\" class=\"list-unstyled\">\r\n     <div>\r\n      <ul style=\"list-style:none;padding-left:0;\" class=\"list-unstyled\">\r\n       <li class=\"list-unstyled\">\r\n        <div class=\"treeview hover p-l-10\">\r\n         <input id=\"Has Systolic Blood Pressure Less Than 140\" type=\"checkbox\"/>\r\n         <label for=\"Has Systolic Blood Pressure Less Than 140\" class=\"list-header\"><strong>Has Systolic Blood Pressure Less Than 140</strong></label>\r\n         <ul style=\"margin-right: 20%; opacity: 1;\" class=\"code\">\r\n          <li class=\"list-unstyled\">\r\n           <div>\r\n            <ul style=\"padding-left: 0px;\">\r\n             <li style=\"padding-left: 0px;\" class=\"list-unstyled\">\r\n              <div>\r\n               <pre class=\"cql-definition-body\">\t&quot;Lowest Systolic Reading on Most Recent Blood Pressure Day&quot;.value &lt; 140</pre>\r\n              </div></li>\r\n            </ul>p;\r\n           </div></li>\r\n         </ul>\r\n        </div></li>\r\n      </ul>\r\n     </div></li>\r\n   </ul>\r\n  </div>\r\n  <div>\r\n   <ul style=\"list-style:none;padding-left: 10px;\">\r\n    <li style=\"list-style:none;\" class=\"list-unstyled\">\r\n     <div>\r\n      <ul style=\"list-style:none;padding-left:0;\" class=\"list-unstyled\">\r\n       <li class=\"list-unstyled\">\r\n        <div class=\"treeview hover p-l-10\">\r\n         <input id=\"Initial Population\" type=\"checkbox\"/>\r\n         <label for=\"Initial Population\" class=\"list-header\"><strong>Initial Population</strong></label>\r\n         <ul style=\"margin-right: 20%; opacity: 1;\" class=\"code\">\r\n          <li class=\"list-unstyled\">\r\n           <div>\r\n            <ul style=\"padding-left: 0px;\">\r\n             <li style=\"padding-left: 0px;\" class=\"list-unstyled\">\r\n              <div>\r\n               <pre class=\"cql-definition-body\">\tCommon.CalendarAgeInYearsAt(FHIRHelpers.ToDate(Patient.birthDate), end of &quot;Measurement Period&quot;) between 18 and 85\r\n\t\tand exists &quot;Essential Hypertension Diagnosis&quot;\r\n\t\tand exists AdultOutpatientEncounters.&quot;Qualifying Encounters&quot;(&quot;Measurement Period&quot;)</pre>\r\n              </div></li>\r\n            </ul>p;\r\n           </div></li>\r\n         </ul>\r\n        </div></li>\r\n      </ul>\r\n     </div></li>\r\n   </ul>\r\n  </div>\r\n  <div>\r\n   <ul style=\"list-style:none;padding-left: 10px;\">\r\n    <li style=\"list-style:none;\" class=\"list-unstyled\">\r\n     <div>\r\n      <ul style=\"list-style:none;padding-left:0;\" class=\"list-unstyled\">\r\n       <li class=\"list-unstyled\">\r\n        <div class=\"treeview hover p-l-10\">\r\n         <input id=\"Lowest Diastolic Reading on Most Recent Blood Pressure Day\" type=\"checkbox\"/>\r\n         <label for=\"Lowest Diastolic Reading on Most Recent Blood Pressure Day\" class=\"list-header\"><strong>Lowest Diastolic Reading on Most Recent Blood Pressure Day</strong></label>\r\n         <ul style=\"margin-right: 20%; opacity: 1;\" class=\"code\">\r\n          <li class=\"list-unstyled\">\r\n           <div>\r\n            <ul style=\"padding-left: 0px;\">\r\n             <li style=\"padding-left: 0px;\" class=\"list-unstyled\">\r\n              <div>\r\n               <pre class=\"cql-definition-body\">\tFirst(\r\n    &quot;Qualifying Diastolic Blood Pressure Reading&quot; DBPReading\r\n\t\t  where DBPReading.effective same day as &quot;Most Recent Blood Pressure Day&quot;\r\n      return singleton from (\r\n        DBPReading.component C\r\n          where C.code ~ &quot;Diastolic blood pressure&quot;\r\n          return C.value as Quantity\r\n      )\r\n\t\t\tsort ascending\r\n\t)</pre>\r\n              </div></li>\r\n            </ul>p;\r\n           </div></li>\r\n         </ul>\r\n        </div></li>\r\n      </ul>\r\n     </div></li>\r\n   </ul>\r\n  </div>\r\n  <div>\r\n   <ul style=\"list-style:none;padding-left: 10px;\">\r\n    <li style=\"list-style:none;\" class=\"list-unstyled\">\r\n     <div>\r\n      <ul style=\"list-style:none;padding-left:0;\" class=\"list-unstyled\">\r\n       <li class=\"list-unstyled\">\r\n        <div class=\"treeview hover p-l-10\">\r\n         <input id=\"Lowest Systolic Reading on Most Recent Blood Pressure Day\" type=\"checkbox\"/>\r\n         <label for=\"Lowest Systolic Reading on Most Recent Blood Pressure Day\" class=\"list-header\"><strong>Lowest Systolic Reading on Most Recent Blood Pressure Day</strong></label>\r\n         <ul style=\"margin-right: 20%; opacity: 1;\" class=\"code\">\r\n          <li class=\"list-unstyled\">\r\n           <div>\r\n            <ul style=\"padding-left: 0px;\">\r\n             <li style=\"padding-left: 0px;\" class=\"list-unstyled\">\r\n              <div>\r\n               <pre class=\"cql-definition-body\">\tFirst(\r\n    &quot;Qualifying Systolic Blood Pressure Reading&quot; SBPReading\r\n\t\t  where SBPReading.effective same day as &quot;Most Recent Blood Pressure Day&quot;\r\n      return singleton from (\r\n        SBPReading.component C\r\n          where C.code ~ &quot;Systolic blood pressure&quot;\r\n          return C.value as Quantity\r\n      )\r\n      sort ascending\r\n\t)</pre>\r\n              </div></li>\r\n            </ul>p;\r\n           </div></li>\r\n         </ul>\r\n        </div></li>\r\n      </ul>\r\n     </div></li>\r\n   </ul>\r\n  </div>\r\n  <div>\r\n   <ul style=\"list-style:none;padding-left: 10px;\">\r\n    <li style=\"list-style:none;\" class=\"list-unstyled\">\r\n     <div>\r\n      <ul style=\"list-style:none;padding-left:0;\" class=\"list-unstyled\">\r\n       <li class=\"list-unstyled\">\r\n        <div class=\"treeview hover p-l-10\">\r\n         <input id=\"Most Recent Blood Pressure Day\" type=\"checkbox\"/>\r\n         <label for=\"Most Recent Blood Pressure Day\" class=\"list-header\"><strong>Most Recent Blood Pressure Day</strong></label>\r\n         <ul style=\"margin-right: 20%; opacity: 1;\" class=\"code\">\r\n          <li class=\"list-unstyled\">\r\n           <div>\r\n            <ul style=\"padding-left: 0px;\">\r\n             <li style=\"padding-left: 0px;\" class=\"list-unstyled\">\r\n              <div>\r\n               <pre class=\"cql-definition-body\">\tMax(&quot;Blood Pressure Days&quot;)</pre>\r\n              </div></li>\r\n            </ul>p;\r\n           </div></li>\r\n         </ul>\r\n        </div></li>\r\n      </ul>\r\n     </div></li>\r\n   </ul>\r\n  </div>\r\n  <div>\r\n   <ul style=\"list-style:none;padding-left: 10px;\">\r\n    <li style=\"list-style:none;\" class=\"list-unstyled\">\r\n     <div>\r\n      <ul style=\"list-style:none;padding-left:0;\" class=\"list-unstyled\">\r\n       <li class=\"list-unstyled\">\r\n        <div class=\"treeview hover p-l-10\">\r\n         <input id=\"Numerator\" type=\"checkbox\"/>\r\n         <label for=\"Numerator\" class=\"list-header\"><strong>Numerator</strong></label>\r\n         <ul style=\"margin-right: 20%; opacity: 1;\" class=\"code\">\r\n          <li class=\"list-unstyled\">\r\n           <div>\r\n            <ul style=\"padding-left: 0px;\">\r\n             <li style=\"padding-left: 0px;\" class=\"list-unstyled\">\r\n              <div>\r\n               <pre class=\"cql-definition-body\">\t&quot;Has Diastolic Blood Pressure Less Than 90&quot;\r\n\t\tand &quot;Has Systolic Blood Pressure Less Than 140&quot;</pre>\r\n              </div></li>\r\n            </ul>p;\r\n           </div></li>\r\n         </ul>\r\n        </div></li>\r\n      </ul>\r\n     </div></li>\r\n   </ul>\r\n  </div>\r\n  <div>\r\n   <ul style=\"list-style:none;padding-left: 10px;\">\r\n    <li style=\"list-style:none;\" class=\"list-unstyled\">\r\n     <div>\r\n      <ul style=\"list-style:none;padding-left:0;\" class=\"list-unstyled\">\r\n       <li class=\"list-unstyled\">\r\n        <div class=\"treeview hover p-l-10\">\r\n         <input id=\"Pregnancy Or Renal Diagnosis Exclusions\" type=\"checkbox\"/>\r\n         <label for=\"Pregnancy Or Renal Diagnosis Exclusions\" class=\"list-header\"><strong>Pregnancy Or Renal Diagnosis Exclusions</strong></label>\r\n         <ul style=\"margin-right: 20%; opacity: 1;\" class=\"code\">\r\n          <li class=\"list-unstyled\">\r\n           <div>\r\n            <ul style=\"padding-left: 0px;\">\r\n             <li style=\"padding-left: 0px;\" class=\"list-unstyled\">\r\n              <div>\r\n               <pre class=\"cql-definition-body\">\t( [&quot;Condition&quot;: &quot;Pregnancy&quot;]\r\n\t\tunion [&quot;Condition&quot;: &quot;End Stage Renal Disease&quot;]\r\n\t\tunion [&quot;Condition&quot;: &quot;Kidney Transplant Recipient&quot;]\r\n\t\tunion [&quot;Condition&quot;: &quot;Chronic Kidney Disease, Stage 5&quot;] ) PregnancyESRDDiagnosis\r\n      where PregnancyESRDDiagnosis.verificationStatus = 'confirmed'\r\n        and PregnancyESRDDiagnosis.assertedDate before end of &quot;Measurement Period&quot;</pre>\r\n              </div></li>\r\n            </ul>p;\r\n           </div></li>\r\n         </ul>\r\n        </div></li>\r\n      </ul>\r\n     </div></li>\r\n   </ul>\r\n  </div>\r\n  <div>\r\n   <ul style=\"list-style:none;padding-left: 10px;\">\r\n    <li style=\"list-style:none;\" class=\"list-unstyled\">\r\n     <div>\r\n      <ul style=\"list-style:none;padding-left:0;\" class=\"list-unstyled\">\r\n       <li class=\"list-unstyled\">\r\n        <div class=\"treeview hover p-l-10\">\r\n         <input id=\"Qualifying Diastolic Blood Pressure Reading\" type=\"checkbox\"/>\r\n         <label for=\"Qualifying Diastolic Blood Pressure Reading\" class=\"list-header\"><strong>Qualifying Diastolic Blood Pressure Reading</strong></label>\r\n         <ul style=\"margin-right: 20%; opacity: 1;\" class=\"code\">\r\n          <li class=\"list-unstyled\">\r\n           <div>\r\n            <ul style=\"padding-left: 0px;\">\r\n             <li style=\"padding-left: 0px;\" class=\"list-unstyled\">\r\n              <div>\r\n               <pre class=\"cql-definition-body\">\t[&quot;Observation&quot;: &quot;Blood pressure&quot;] BloodPressure \r\n\t  where BloodPressure.status in {'final', 'amended'} \r\n      and BloodPressure.effective during &quot;Measurement Period&quot;\r\n      // TODO: Turn this into a value set\r\n\t    //and not (GetEncounter(BloodPressure.&quot;context&quot;).class.code in { 'EMER', 'IMP', 'ACUTE', 'NONAC', 'PRENC', 'SS' })\r\n      and exists (\r\n        BloodPressure.component DiastolicBP \r\n          where FHIRHelpers.ToConcept(DiastolicBP.code) ~ &quot;Diastolic blood pressure&quot;\r\n            and DiastolicBP.value.unit = 'mm[Hg]'\r\n      )</pre>\r\n              </div></li>\r\n            </ul>p;\r\n           </div></li>\r\n         </ul>\r\n        </div></li>\r\n      </ul>\r\n     </div></li>\r\n   </ul>\r\n  </div>\r\n  <div>\r\n   <ul style=\"list-style:none;padding-left: 10px;\">\r\n    <li style=\"list-style:none;\" class=\"list-unstyled\">\r\n     <div>\r\n      <ul style=\"list-style:none;padding-left:0;\" class=\"list-unstyled\">\r\n       <li class=\"list-unstyled\">\r\n        <div class=\"treeview hover p-l-10\">\r\n         <input id=\"Qualifying Systolic Blood Pressure Reading\" type=\"checkbox\"/>\r\n         <label for=\"Qualifying Systolic Blood Pressure Reading\" class=\"list-header\"><strong>Qualifying Systolic Blood Pressure Reading</strong></label>\r\n         <ul style=\"margin-right: 20%; opacity: 1;\" class=\"code\">\r\n          <li class=\"list-unstyled\">\r\n           <div>\r\n            <ul style=\"padding-left: 0px;\">\r\n             <li style=\"padding-left: 0px;\" class=\"list-unstyled\">\r\n              <div>\r\n               <pre class=\"cql-definition-body\">\t[&quot;Observation&quot;: &quot;Blood pressure&quot;] BloodPressure \r\n\t  where BloodPressure.status in {'final', 'amended'} \r\n      and BloodPressure.effective during &quot;Measurement Period&quot;\r\n      // TODO: Turn this into a value set\r\n\t    and not (GetEncounter(BloodPressure.&quot;context&quot;).class.code in { 'EMER', 'IMP', 'ACUTE', 'NONAC', 'PRENC', 'SS'})\r\n      and exists (\r\n        BloodPressure.component SystolicBP \r\n          where FHIRHelpers.ToConcept(SystolicBP.code) ~ &quot;Systolic blood pressure&quot;\r\n            and SystolicBP.value.unit = 'mm[Hg]'\r\n      )</pre>\r\n              </div></li>\r\n            </ul>p;\r\n           </div></li>\r\n         </ul>\r\n        </div></li>\r\n      </ul>\r\n     </div></li>\r\n   </ul>\r\n  </div>\r\n  <h3><a name=\"d1e650\" href=\"#toc\">Functions</a></h3>\r\n  <div>\r\n   <ul style=\"list-style:none;padding-left: 10px;\">\r\n    <li style=\"list-style:none;\" class=\"list-unstyled\">\r\n     <div>\r\n      <ul style=\"list-style:none;padding-left:0;\" class=\"list-unstyled\">\r\n       <li class=\"list-unstyled\">\r\n        <div class=\"treeview hover p-l-10\">\r\n         <input id=\"GetEncounter\" type=\"checkbox\"/>\r\n         <label for=\"GetEncounter\" class=\"list-header\"><strong>GetEncounter</strong></label>\r\n         <ul style=\"margin-right: 20%; opacity: 1;\" class=\"code\">\r\n          <li class=\"list-unstyled\">\r\n           <div>\r\n            <ul style=\"padding-left: 0px;\">\r\n             <li style=\"padding-left: 0px;\" class=\"list-unstyled\">\r\n              <div>\r\n               <pre class=\"cql-definition-body\">define function GetEncounter(reference Reference):\r\n  singleton from ( [Encounter: id in Common.GetId(reference.reference)] )</pre>\r\n              </div></li>\r\n            </ul>p;\r\n           </div></li>\r\n         </ul>\r\n        </div></li>\r\n      </ul>\r\n     </div></li>\r\n   </ul>\r\n  </div>\r\n  <h3><a name=\"d1e555\" href=\"#toc\">Terminology</a></h3>\r\n  <div>\r\n   <ul style=\"padding-left: 50px;\">\r\n    <li style=\"width:80%\">codesystem &quot;LOINC&quot; : '2.16.840.1.113883.6.1'</li>\r\n    <li style=\"width:80%\">code &quot;Birth date&quot; : '21112-8' from &quot;LOINC&quot; display 'Birth date'</li>\r\n    <li style=\"width:80%\">code &quot;Blood pressure&quot; : '85354-9' from &quot;LOINC&quot; display 'blood pressure'</li>\r\n    <li style=\"width:80%\">code &quot;Diastolic blood pressure&quot; : '8462-4' from &quot;LOINC&quot; display 'Diastolic blood pressure'</li>\r\n    <li style=\"width:80%\">code &quot;Systolic blood pressure&quot; : '8480-6' from &quot;LOINC&quot; display 'Systolic blood pressure'</li>\r\n    <li style=\"width:80%\">valueset &quot;Chronic Kidney Disease, Stage 5&quot; : '2.16.840.1.113883.3.526.3.1002'</li>\r\n    <li style=\"width:80%\">valueset &quot;Dialysis Services&quot; : '2.16.840.1.113883.3.464.1003.109.12.1013'</li>\r\n    <li style=\"width:80%\">valueset &quot;ED&quot; : '2.16.840.1.113883.3.464.1003.101.12.1085'</li>\r\n    <li style=\"width:80%\">valueset &quot;Encounter Inpatient&quot; : '2.16.840.1.113883.3.666.5.307'</li>\r\n    <li style=\"width:80%\">valueset &quot;End Stage Renal Disease&quot; : '2.16.840.1.113883.3.526.3.353'</li>\r\n    <li style=\"width:80%\">valueset &quot;ESRD Monthly Outpatient Services&quot; : '2.16.840.1.113883.3.464.1003.109.12.1014'</li>\r\n    <li style=\"width:80%\">valueset &quot;Essential Hypertension&quot; : '2.16.840.1.113883.3.464.1003.104.12.1011'</li>\r\n    <li style=\"width:80%\">valueset &quot;Ethnicity&quot; : '2.16.840.1.114222.4.11.837'</li>\r\n    <li style=\"width:80%\">valueset &quot;Kidney Transplant Recipient&quot; : '2.16.840.1.113883.3.464.1003.109.12.1029'</li>\r\n    <li style=\"width:80%\">valueset &quot;Kidney Transplant&quot; : '2.16.840.1.113883.3.464.1003.109.12.1012'</li>\r\n    <li style=\"width:80%\">valueset &quot;ONC Administrative Sex&quot; : '2.16.840.1.113762.1.4.1'</li>\r\n    <li style=\"width:80%\">valueset &quot;Payer&quot; : '2.16.840.1.114222.4.11.3591'</li>\r\n    <li style=\"width:80%\">valueset &quot;Pregnancy&quot; : '2.16.840.1.113883.3.526.3.378'</li>\r\n    <li style=\"width:80%\">valueset &quot;Race&quot; : '2.16.840.1.114222.4.11.836'</li>\r\n    <li style=\"width:80%\">valueset &quot;Vascular Access for Dialysis&quot; : '2.16.840.1.113883.3.464.1003.109.12.1011'</li>\r\n   </ul>\r\n  </div>\r\n  <h3><a name=\"d1e647\" href=\"#toc\">Data Criteria (QDM Data Elements)</a></h3>\r\n  <div>\r\n    <ul style=\"padding-left: 50px;\">\r\n      \r\n    </ul>\r\n  </div>\r\n  <h3><a name=\"d1e767\" href=\"#toc\">Supplemental Data Elements</a></h3>\r\n  \r\n  <div>\r\n    <ul style=\"list-style:none;padding-left: 25px;\">\r\n        <li>None</li>\r\n    </ul>\r\n </div>\r\n  <h3><a name=\"d1e879\" href=\"#toc\">Risk Adjustment Variables</a></h3>\r\n  <div>\r\n   <ul style=\"list-style:none;padding-left: 25px;\">\r\n    <li>None</li>\r\n   </ul>\r\n  </div>\r\n  <div style=\"float:left; background:teal; height:3px; width:80%\"/>\r\n  <table>\r\n        \r\n                      <!-- <th:block th:each=\"con, iter : ${resource.content}\">\r\n            <tr th:if=\"${con.contentType == 'text/cql'}\" style=\"vertical-align: top;\">\r\n                <td style=\"background-color:#656565; width:20%\" scope=\"row\"><span class=\"td_label\">Content</span></td>\r\n                <td style=\"width:80%\" ><b>type: </b><span th:text=\"${con.contentType}\"></span></td>\r\n            </tr>\r\n            <tr th:if=\"${con.contentType == 'text/cql'}\">\r\n                <td style=\"width:100%\" colspan=\"2\" >\r\n                    <th:block th:if=\"${con.getData() != null }\" >\r\n                        <pre><code th:class=\"${con.contentType == 'text/cql' ? 'language-cql' : 'language-xml'}\" th:text=\"${new java.lang.String(con.getData())}\"></code></pre>\r\n                    </th:block>\r\n                    <th:block th:if=\"${con.getData() == null }\" >\r\n                        <span><i>&lt;content is empty&gt;</i></span>\r\n                    </th:block>\r\n                </td>\r\n            </tr>\r\n        </th:block > -->\r\n    </table>\r\n</div>"
      },
      "extension": [ {
        "url": "http://hl7.org/fhir/us/cqfmeasures/StructureDefinition/cqfm-populationBasis",
        "valueCode": "boolean"
      } ],
      "url": "http://hl7.org/fhir/us/cqfmeasures/Measure/measure-EXM165-FHIR3",
      "version": "1.0.000",
      "name": "EXM165",
      "title": "Controlling High Blood Pressure",
      "status": "active",
      "experimental": true,
      "publisher": "National Committee for Quality Assurance (NCQA)",
      "description": "Percentage of patients 18-85 years of age who had a diagnosis of hypertension overlapping the measurement period and whose most recent blood pressure was adequately controlled (<140/90mmHg) during the measurement period",
      "purpose": "Patients 18-85 years of age who had a visit and diagnosis of essential hypertension overlapping the measurement period",
      "approvalDate": "2016-01-01",
      "lastReviewDate": "2016-09-01",
      "effectivePeriod": {
        "start": "2019-01-01",
        "end": "2019-12-31"
      },
      "useContext": [ {
        "code": {
          "code": "program"
        },
        "valueCodeableConcept": {
          "text": "eligible-provider"
        }
      } ],
      "jurisdiction": [ {
        "coding": [ {
          "system": "urn:iso:std:iso:3166",
          "code": "US"
        } ]
      } ],
      "topic": [ {
        "coding": [ {
          "system": "http://loinc.org",
          "code": "57024-2",
          "display": "Health Quality Measure Document"
        } ]
      } ],
      "contributor": [ {
        "type": "author",
        "name": "National Committee for Quality Assurance"
      } ],
      "contact": [ {
        "telecom": [ {
          "system": "url",
          "value": "http://www.ncqa.org/"
        } ]
      } ],
      "copyright": "This Physician Performance Measure (Measure) and related data specifications were developed by the National Committee for Quality Assurance (NCQA). NCQA is not responsible for any use of the Measure. NCQA makes no representations, warranties, or endorsement about the quality of any organization or physician that uses or reports performance measures and NCQA has no liability to anyone who relies on such measures or specifications. NCQA holds a copyright in the Measure. The Measure can be reproduced and distributed, without modification, for noncommercial purposes (eg, use by healthcare providers in connection with their practices) without obtaining approval from NCQA. Commercial use is defined as the sale, licensing, or distribution of the Measure for commercial gain, or incorporation of the Measure into a product or service that is sold, licensed or distributed for commercial gain. All commercial uses or requests for modification must be approved by NCQA and are subject to a license at the discretion of NCQA. (C) 2012-2017 National Committee for Quality Assurance. All Rights Reserved. <br> Limited proprietary coding is contained in the Measure specifications for user convenience. Users of proprietary code sets should obtain all necessary licenses from the owners of the code sets. NCQA disclaims all liability for use or accuracy of any third party codes contained in the specifications. <br> CPT(R) contained in the Measure specifications is copyright 2004-2017 American Medical Association. LOINC(R) copyright 2004-2017 Regenstrief Institute, Inc. This material contains SNOMED Clinical Terms(R) (SNOMED CT[R] ) copyright 2004-2017 International Health Terminology Standards Development Organisation. ICD-10 copyright 2017 World Health Organization. All Rights Reserved.",
      "relatedArtifact": [ {
        "type": "citation",
        "citation": "American Diabetes Association. (2018). 9. Cardiovascular disease and risk management: Standards of medical care in diabetes 2018. Diabetes Care, 41(Suppl. 1), S86-S104."
      }, {
        "type": "citation",
        "citation": "Benjamin, E. J., Blaha, M. J., Chiuve, S. E., et al. (2017). Heart disease and stroke statistics-2017 update: A report from the American Heart Association. Circulation, 135(10), e146-e603.doi: 10.1161/CIR.0000000000000485"
      }, {
        "type": "citation",
        "citation": "Centers for Disease Control and Prevention. (2012). Vital signs: Getting blood pressure under control. Retrieved from https://www.cdc.gov/vitalsigns/hypertension/index.html"
      }, {
        "type": "citation",
        "citation": "Centers for Disease Control and Prevention. Division for Heart Disease and Stroke Prevention. (2016). High blood pressure fact sheet. Retrieved from https://www.cdc.gov/dhdsp/data_statistics/fact_sheets/fs_bloodpressure.htmhttps://www.cdc.gov/dhdsp/data_statistics/fact_sheets/fs_bloodpressure.htm. "
      }, {
        "type": "citation",
        "citation": "Centers for Disease Control and Prevention, National Center for Health Statistics. (2015). Underlying Cause of Death 1999-2013 on CDC WONDER Online Database. Data are from the Multiple Cause of Death Files, 1999-2013, as compiled from data provided by the 57 vital statistics jurisdictions through the Vital Statistics Cooperative Program. Retrieved from http://wonder.cdc.gov/ucd-icd10.html"
      }, {
        "type": "citation",
        "citation": "Crim, M. T., Yoon, S. S., Ortiz, E., et al. (2012). National surveillance definitions for hypertension prevalence and control among adults. Circulation: Cardiovascular Quality and Outcomes. 2012, ;5(3), :343-–351. doi: 10.1161/ CIRCOUTCOMES.111.963439."
      }, {
        "type": "citation",
        "citation": "James, P. A., Oparil, S., Carter, B. L., et al (2014). 2014 evidence-based guideline for the management of high blood pressure in adults: Report from the panel members appointed to the Eighth Joint National Committee (JNC8). JAMA. 311(5), 507-520. doi:10.1001/jama.2013.284427"
      }, {
        "type": "citation",
        "citation": "Moran, A. E., Odden, M. C., Thanataveerat, A., et al.Tzong KY, Rasmussen PW, Guzman D, Williams L, Bibbins-Domingo K, Coxson PG, Goldman L. (2015). Cost-effectiveness of hypertension therapy according to 2014 guidelines. [published correction appears in N Engl J. Med. 2015;372:1677]. New England Journal of Medicine,. 2015 ;372, :447-–455. doi:  10.1056/NEJMsa1406751. [published correction appears on page 1677] \nFarley TA, Dalal MA, Mostashari F, Frieden TR. Deaths preventable in the US by improvements in the use of clinical preventive services. Am J Prev Med. 2010;38:600-9."
      }, {
        "type": "citation",
        "citation": "Patel, S. A., Winkel, M., Ali, M. K., et al. (2015). Cardiovascular mortality associated with 5 leading risk factors: National and state preventable fractions estimated from survey data. Annals of Internal Medicine, 163(4), :245–253. doi: 10.7326/M14-1753"
      }, {
        "type": "citation",
        "citation": "Qaseem, A., Wilt, T. J., Rich, R., et al. (2017). Pharmacologic treatment of hypertension in adults aged 60 years or older to higher versus lower blood pressure targets: A clinical practice guideline from the American College of Physicians and the American Academy of Family Physicians. Annals of Internal Medicine, 166(6), 430-437."
      }, {
        "type": "citation",
        "citation": "SPRINT Research Group,; Wright, J. T., Jr., Williamson,  J. D., et al. (2015). A randomized trial of intensive versus standard blood-pressure control. New England Journal of Medicine, 373(22), 2103–2116."
      }, {
        "type": "citation",
        "citation": "U.S. Preventive Services Task Force. (2015). Screening for high blood pressure in adults: U.S. Preventive Services Task Force recommendation statement. Annals of Internal Medicine, 163(10), 778-787."
      }, {
        "type": "citation",
        "citation": "Whelton, P. K., Carey, R. M., Aronow, W. S., et al. (2017). Guideline for the prevention, detection, evaluation, and management of high blood pressure in adults: A report of the American College of Cardiology/American Heart Association Task Force on Clinical Practice Guidelines. Journal of the American College of Cardiology, . https://doi.org/10.1161/HYP.0000000000000065"
      }, {
        "type": "citation",
        "citation": "Yoon, S. S., Fryar, C. D., & Carroll, M. D. (2015). Hypertension prevalence and control among adults: United States, 2011-2014. NCHS Data Brief No. 220. Hyattsville, MD: National Center for Health Statistics."
      }, {
        "type": "depends-on",
        "resource": {
          "reference": "Library/library-FHIRHelpers-3.0.0"
        }
      }, {
        "type": "depends-on",
        "resource": {
          "reference": "Library/library-MATGlobalCommonFunctions-FHIR3-2.0.000"
        }
      }, {
        "type": "depends-on",
        "resource": {
          "reference": "Library/library-AdultOutpatientEncounters-FHIR3-1.1.000"
        }
      }, {
        "type": "depends-on",
        "resource": {
          "reference": "Library/library-AdvancedIllnessandFrailtyExclusion-FHIR3-4.0.000"
        }
      } ],
      "library": [ {
        "reference": "Library/library-EXM165-FHIR3-8.5.000"
      } ],
      "disclaimer": "The performance Measure is not a clinical guideline and does not establish a standard of medical care, and has not been tested for all potential applications. THE MEASURE AND SPECIFICATIONS ARE PROVIDED \"AS IS\" WITHOUT WARRANTY OF ANY KIND.\n \nDue to technical limitations, registered trademarks are indicated by (R) or [R] and unregistered trademarks are indicated by (TM) or [TM].",
      "scoring": {
        "coding": [ {
          "system": "http://hl7.org/fhir/measure-scoring",
          "code": "proportion"
        } ]
      },
      "type": [ {
        "coding": [ {
          "system": "http://hl7.org/fhir/measure-type",
          "code": "process"
        } ]
      } ],
      "rationale": "High blood pressure (HBP), also known as hypertension, is when the pressure in blood vessels is higher than normal (Centers for Disease Control and Prevention [CDC], 2016). The causes of hypertension are multiple and multifaceted and can be based on genetic predisposition, environmental risk factors, being overweight and obese, sodium intake, potassium intake, physical activity, and alcohol use. High Blood Pressure is common, according to the National Health and Nutrition Examination Survey (NHANES), approximately 85.7 million adults >= 20 years of age had HBP (140/90 mm Hg) between 2011 to 2014 (Crim, 2012. Between 2011-2014 the prevalence of hypertension (>=140/90 mm Hg) among US adults 60 and older was approximately 67.2 percent (Benjamin et al., 2017). \n\nHBP, known as the “silent killer,” increases risks of heart disease and stroke which are two of the leading causes of death in the U.S. (Yoon, Fryar, & Carroll, 2015). A person who has HBP is four times more likely to die from a stroke and three times more likely to die from heart disease (CDC, 2012) The National Vital Statistics Systems Center for Disease Control and Prevention reported that in 2014 there were approximately 73,300 deaths directly due to HBP and 410,624 deaths with any mention of HBP (CDC, 20145).Between 2004 and 2014 the number of deaths due to HBP rose by 34.1 percent (Benjamin et al., 2017). Managing and treating HBP would reduce cardiovascular disease mortality for males and females by 30.4 percent and 38.0 percent, respectively (Patel et al., 2015).\n\nThe estimated annual average direct and indirect cost of HBP from 2012 to 2013 was $51.2 billion (Benjamin et al., 2017). Total direct costs of HBP is projected to increase to $200 billion by 2030 (Benjamin et al., 2017). A study on cost-effectiveness on treating hypertension found that controlling HBP in patients with cardiovascular disease and systolic blood pressures of >=160 mm Hg could be effective and cost-saving (Moran et al., 2015). \n\nMany studies have shown that controlling high blood pressure reduces cardiovascular events and mortality. The Systolic Blood Pressure Intervention Trial (SPRINT) investigated the impact of obtaining a SBP goal of <120 mm Hg compared to a SBP goal of <140 mm Hg among patients 50 and older with established cardiovascular disease and found that the patients with the former goal had reduced cardiovascular events and mortality (SPRINT Research Group et al., 2015). \n\nControlling HBP will significantly reduce the risks of cardiovascular disease mortality and lead to better health outcomes like reduction of heart attacks, stroke, and kidney disease (James et al., 2014). Thus, the relationship between the measure (control of hypertension) and the long-term clinical outcomes listed is well established.",
      "clinicalRecommendationStatement": "The U.S. Preventive Services Task Force (2015) recommends  screening for high blood pressure in adults age 18 years and older. This is a grade A recommendation. \n\nAmerican College of Cardiology/American Heart Association (2017)\n-For adults with confirmed hypertension and known CVD or 10-year ASCVD event risk of 10% or higher, a blood pressure target of less than 130/80 mmHg is recommended\n-For adults with confirmed hypertension, without additional markers of increased CVD risk, a blood pressure target of less than 130/80 mmHg may be reasonable (Note: clinical trial evidence is strongest for a target blood pressure of 140/90 mmHg in this population. However observational studies suggest that these individuals often have a high lifetime risk and would benefit from blood pressure control earlier in life)\n\nAmerican College of Physicians and the American Academy of Family Physicians (2017):  \n-Initiate intensifying pharmacologic treatment in adults aged 60 and older at high cardiovascular risk, based on individualized assessment, to achieve a target systolic blood pressure of less than 140 mmHg (Grade: weak recommendation, quality of evidence: low)\n-Initiate intensifying pharmacologic treatment in adults aged 60 and older with a history of stroke or transient ischemic attack to achieve a target systolic blood pressure of less than 140 mmHg to reduce the risk of recurrent stroke (Grade: weak recommendation, quality of evidence: moderate)\n\nAmerican Diabetes Association (2018):\nMost patients with diabetes and hypertension should be treated to a systolic blood pressure goal of <140 mmHg and a diastolic blood pressure goal of <90 mmHg (Level of evidence: A)\n\nReport from the Eighth Joint National Committee (2014)\n-In the general population younger than 60 years, initiate pharmacologic treatment to lower blood pressure at diastolic blood pressure (DBP) of 90 mmHg or higher and treat to a goal of DBP of lower than 90 mmHg (Grade: A (for ages 30-59), Grade: E (for ages 18-29))\n-In the general population younger than 60 years, initiate pharmacologic treatment to lower blood pressure at systolic blood pressure (SBP) to 140 mmHg or higher and treat to a goal of SBP of lower than 140 mmHg (Grade: E)\n-In the general population aged 60 years and older, initiate pharmacologic treatment to lower blood pressure at SBP of 150 mmHg or higher or a DBP of 90 mmHg or higher and treat to a goal of SBP lower than 150 mmHg and goal of DBP lower than 90 mmHg",
      "improvementNotation": "increase",
      "guidance": "In reference to the numerator element, only blood pressure readings performed by a clinician or a remote monitoring device are acceptable  for numerator compliance with this measure. \n\nDo not include BP readings:\n-Taken during an acute inpatient stay or an ED visit\n-Taken on the same day as a diagnostic test or diagnostic or therapeutic procedure that requires a change in diet or change in medication on or one day before the day of the test or procedure, with the exception of fasting blood tests.\n-Reported by or taken by the member\n\n\nIf no blood pressure is recorded during the measurement period, the patient's blood pressure is assumed \"not controlled.\"\n\nIf there are multiple blood pressure readings on the same day, use the lowest systolic and the lowest diastolic reading as the most recent blood pressure reading.",
      "group": [ {
        "identifier": {
          "value": "group-1"
        },
        "population": [ {
          "identifier": {
            "value": "initial-population-identifier"
          },
          "code": {
            "coding": [ {
              "system": "http://terminology.hl7.org/CodeSystem/measure-population",
              "code": "initial-population",
              "display": "Initial Population"
            } ]
          },
          "criteria": "Initial Population"
        }, {
          "identifier": {
            "value": "numerator-identifier"
          },
          "code": {
            "coding": [ {
              "system": "http://terminology.hl7.org/CodeSystem/measure-population",
              "code": "numerator",
              "display": "Numerator"
            } ]
          },
          "criteria": "Numerator"
        }, {
          "identifier": {
            "value": "denominator-identifier"
          },
          "code": {
            "coding": [ {
              "system": "http://terminology.hl7.org/CodeSystem/measure-population",
              "code": "denominator",
              "display": "Denominator"
            } ]
          },
          "criteria": "Denominator"
        }, {
          "identifier": {
            "value": "denominator-exclusions-identifier"
          },
          "code": {
            "coding": [ {
              "system": "http://terminology.hl7.org/CodeSystem/measure-population",
              "code": "denominator-exclusion",
              "display": "Denominator Exclusion"
            } ]
          },
          "criteria": "Denominator Exclusion"
        } ]
      } ],
      "supplementalData": [ {
        "identifier": {
          "value": "sde-ethnicity"
        },
        "usage": [ {
          "coding": [ {
            "system": "http://hl7.org/fhir/measure-data-usage",
            "code": "supplemental-data"
          } ]
        } ],
        "criteria": "SDE Ethnicity"
      }, {
        "identifier": {
          "value": "sde-payer"
        },
        "usage": [ {
          "coding": [ {
            "system": "http://hl7.org/fhir/measure-data-usage",
            "code": "supplemental-data"
          } ]
        } ],
        "criteria": "SDE Payer"
      }, {
        "identifier": {
          "value": "sde-race"
        },
        "usage": [ {
          "coding": [ {
            "system": "http://hl7.org/fhir/measure-data-usage",
            "code": "supplemental-data"
          } ]
        } ],
        "criteria": "SDE Race"
      }, {
        "identifier": {
          "value": "sde-sex"
        },
        "usage": [ {
          "coding": [ {
            "system": "http://hl7.org/fhir/measure-data-usage",
            "code": "supplemental-data"
          } ]
        } ],
        "criteria": "SDE Sex"
      } ]
    },
    "request": {
      "method": "PUT",
      "url": "Measure/measure-EXM165-FHIR3-8.5.000/_history/2"
    }
  }, {
    "resource": {
      "resourceType": "Library",
      "id": "library-AdvancedIllnessandFrailtyExclusion-FHIR3-4.0.000",
      "text": {
        "status": "generated",
        "div": "<div xmlns=\"http://www.w3.org/1999/xhtml\"><table class=\"grid dict\"><tr><th scope=\"row\"><b>Id: </b></th><td style=\"padding-left: 25px; padding-right: 25px;\">library-AdvancedIllnessandFrailtyExclusion-FHIR3-4.0.000</td></tr><tr><th scope=\"row\"><b>Type: </b></th><td style=\"padding-right: 25px;\"> Logic Library </td></tr><tr><th scope=\"row\"><b>Version: </b></th><td style=\"padding-left: 25px; padding-right: 25px;\">4.0.000</td></tr><tr><th scope=\"row\"><b>Status: </b></th><td style=\"padding-left: 25px; padding-right: 25px;\">active</td></tr><tr style=\"vertical-align: top;\"><th rowspan=\"2\" scope=\"row\"><b>Related: </b></th><td style=\"padding-left: 25px; padding-right: 25px;\"><p style=\"margin-bottom: 5px;\"><b>type: </b><span>depends-on</span></p><p style=\"margin-bottom: 5px;\"><b>Resource: </b><br/><span><span style=\"padding-left: 25px;\"><b>reference: </b><span>Library/library-FHIRHelpers-3.0.0</span></span></span></p></td></tr><tr style=\"vertical-align: top;\"><td style=\"padding-left: 25px; padding-right: 25px;\"><p style=\"margin-bottom: 5px;\"><b>type: </b><span>depends-on</span></p><p style=\"margin-bottom: 5px;\"><b>Resource: </b><br/><span><span style=\"padding-left: 25px;\"><b>reference: </b><span>Library/library-MATGlobalCommonFunctions-FHIR3-2.0.000</span></span></span></p></td></tr><tr style=\"vertical-align: top;\"><th rowspan=\"14\" scope=\"row\"><b>Data Requirements: </b></th><td style=\"padding-left: 25px; padding-right: 25px;\"><div><p style=\"margin-bottom: 5px;\"><b>type: </b><span>Condition</span></p><p style=\"margin-bottom: 5px;\"><b>code filter:</b><br/><span style=\"padding-left: 25px;\"><b>path: </b><span>code</span></span><br/><span style=\"padding-left: 25px;\"><b>valueset: </b><span>http://cts.nlm.nih.gov/fhir/ValueSet/2.16.840.1.113883.3.464.1003.110.12.1082</span></span></p></div></td></tr><tr style=\"vertical-align: top;\"><td style=\"padding-left: 25px; padding-right: 25px;\"><div><p style=\"margin-bottom: 5px;\"><b>type: </b><span>Encounter</span></p><p style=\"margin-bottom: 5px;\"><b>code filter:</b><br/><span style=\"padding-left: 25px;\"><b>path: </b><span>type</span></span><br/><span style=\"padding-left: 25px;\"><b>valueset: </b><span>http://cts.nlm.nih.gov/fhir/ValueSet/2.16.840.1.113883.3.464.1003.101.12.1087</span></span></p></div></td></tr><tr style=\"vertical-align: top;\"><td style=\"padding-left: 25px; padding-right: 25px;\"><div><p style=\"margin-bottom: 5px;\"><b>type: </b><span>Encounter</span></p><p style=\"margin-bottom: 5px;\"><b>code filter:</b><br/><span style=\"padding-left: 25px;\"><b>path: </b><span>type</span></span><br/><span style=\"padding-left: 25px;\"><b>valueset: </b><span>http://cts.nlm.nih.gov/fhir/ValueSet/2.16.840.1.113883.3.464.1003.101.12.1086</span></span></p></div></td></tr><tr style=\"vertical-align: top;\"><td style=\"padding-left: 25px; padding-right: 25px;\"><div><p style=\"margin-bottom: 5px;\"><b>type: </b><span>Encounter</span></p><p style=\"margin-bottom: 5px;\"><b>code filter:</b><br/><span style=\"padding-left: 25px;\"><b>path: </b><span>type</span></span><br/><span style=\"padding-left: 25px;\"><b>valueset: </b><span>http://cts.nlm.nih.gov/fhir/ValueSet/2.16.840.1.113883.3.464.1003.101.12.1085</span></span></p></div></td></tr><tr style=\"vertical-align: top;\"><td style=\"padding-left: 25px; padding-right: 25px;\"><div><p style=\"margin-bottom: 5px;\"><b>type: </b><span>Encounter</span></p><p style=\"margin-bottom: 5px;\"><b>code filter:</b><br/><span style=\"padding-left: 25px;\"><b>path: </b><span>type</span></span><br/><span style=\"padding-left: 25px;\"><b>valueset: </b><span>http://cts.nlm.nih.gov/fhir/ValueSet/2.16.840.1.113883.3.464.1003.101.12.1084</span></span></p></div></td></tr><tr style=\"vertical-align: top;\"><td style=\"padding-left: 25px; padding-right: 25px;\"><div><p style=\"margin-bottom: 5px;\"><b>type: </b><span>Encounter</span></p><p style=\"margin-bottom: 5px;\"><b>code filter:</b><br/><span style=\"padding-left: 25px;\"><b>path: </b><span>type</span></span><br/><span style=\"padding-left: 25px;\"><b>valueset: </b><span>http://cts.nlm.nih.gov/fhir/ValueSet/2.16.840.1.113883.3.464.1003.101.12.1014</span></span></p></div></td></tr><tr style=\"vertical-align: top;\"><td style=\"padding-left: 25px; padding-right: 25px;\"><div><p style=\"margin-bottom: 5px;\"><b>type: </b><span>Encounter</span></p><p style=\"margin-bottom: 5px;\"><b>code filter:</b><br/><span style=\"padding-left: 25px;\"><b>path: </b><span>type</span></span><br/><span style=\"padding-left: 25px;\"><b>valueset: </b><span>http://cts.nlm.nih.gov/fhir/ValueSet/2.16.840.1.113883.3.464.1003.101.12.1012</span></span></p></div></td></tr><tr style=\"vertical-align: top;\"><td style=\"padding-left: 25px; padding-right: 25px;\"><div><p style=\"margin-bottom: 5px;\"><b>type: </b><span>Encounter</span></p><p style=\"margin-bottom: 5px;\"><b>code filter:</b><br/><span style=\"padding-left: 25px;\"><b>path: </b><span>type</span></span><br/><span style=\"padding-left: 25px;\"><b>valueset: </b><span>http://cts.nlm.nih.gov/fhir/ValueSet/2.16.840.1.113883.3.464.1003.101.12.1083</span></span></p></div></td></tr><tr style=\"vertical-align: top;\"><td style=\"padding-left: 25px; padding-right: 25px;\"><div><p style=\"margin-bottom: 5px;\"><b>type: </b><span>MedicationDispense</span></p><p style=\"margin-bottom: 5px;\"><b>code filter:</b><br/><span style=\"padding-left: 25px;\"><b>path: </b><span>medication</span></span><br/><span style=\"padding-left: 25px;\"><b>valueset: </b><span>http://cts.nlm.nih.gov/fhir/ValueSet/2.16.840.1.113883.3.464.1003.196.12.1510</span></span></p></div></td></tr><tr style=\"vertical-align: top;\"><td style=\"padding-left: 25px; padding-right: 25px;\"><div><p style=\"margin-bottom: 5px;\"><b>type: </b><span>DeviceRequest</span></p><p style=\"margin-bottom: 5px;\"><b>code filter:</b><br/><span style=\"padding-left: 25px;\"><b>path: </b><span>code</span></span><br/><span style=\"padding-left: 25px;\"><b>valueset: </b><span>http://cts.nlm.nih.gov/fhir/ValueSet/2.16.840.1.113883.3.464.1003.118.12.1300</span></span></p></div></td></tr><tr style=\"vertical-align: top;\"><td style=\"padding-left: 25px; padding-right: 25px;\"><div><p style=\"margin-bottom: 5px;\"><b>type: </b><span>DeviceUseStatement</span></p></div></td></tr><tr style=\"vertical-align: top;\"><td style=\"padding-left: 25px; padding-right: 25px;\"><div><p style=\"margin-bottom: 5px;\"><b>type: </b><span>Condition</span></p><p style=\"margin-bottom: 5px;\"><b>code filter:</b><br/><span style=\"padding-left: 25px;\"><b>path: </b><span>code</span></span><br/><span style=\"padding-left: 25px;\"><b>valueset: </b><span>http://cts.nlm.nih.gov/fhir/ValueSet/2.16.840.1.113883.3.464.1003.113.12.1074</span></span></p></div></td></tr><tr style=\"vertical-align: top;\"><td style=\"padding-left: 25px; padding-right: 25px;\"><div><p style=\"margin-bottom: 5px;\"><b>type: </b><span>Encounter</span></p><p style=\"margin-bottom: 5px;\"><b>code filter:</b><br/><span style=\"padding-left: 25px;\"><b>path: </b><span>type</span></span><br/><span style=\"padding-left: 25px;\"><b>valueset: </b><span>http://cts.nlm.nih.gov/fhir/ValueSet/2.16.840.1.113883.3.464.1003.101.12.1088</span></span></p></div></td></tr><tr style=\"vertical-align: top;\"><td style=\"padding-left: 25px; padding-right: 25px;\"><div><p style=\"margin-bottom: 5px;\"><b>type: </b><span>Observation</span></p><p style=\"margin-bottom: 5px;\"><b>code filter:</b><br/><span style=\"padding-left: 25px;\"><b>path: </b><span>code</span></span><br/><span style=\"padding-left: 25px;\"><b>valueset: </b><span>http://cts.nlm.nih.gov/fhir/ValueSet/2.16.840.1.113883.3.464.1003.113.12.1075</span></span></p></div></td></tr><tr style=\"vertical-align: top;\"><th scope=\"row\"><b>Content: </b></th><td style=\"padding-left: 25px; padding-right: 25px;\"><b>type: </b><span>text/cql</span></td></tr><tr><td colspan=\"2\" style=\"padding-left: 25px; padding-right: 25px;\"><pre><code class=\"language-cql\">library AdvancedIllnessandFrailtyExclusion_FHIR3 version '4.0.000'\n\nusing FHIR version '3.0.0'\n\ninclude FHIRHelpers version '3.0.0' called FHIRHelpers\ninclude MATGlobalCommonFunctions_FHIR3 version '2.0.000' called Global\n\ncodesystem &quot;LOINC&quot;: 'urn:oid:2.16.840.1.113883.6.1'\n\nvalueset &quot;Acute Inpatient&quot;: 'http://cts.nlm.nih.gov/fhir/ValueSet/2.16.840.1.113883.3.464.1003.101.12.1083'\nvalueset &quot;Advanced Illness&quot;: 'http://cts.nlm.nih.gov/fhir/ValueSet/2.16.840.1.113883.3.464.1003.110.12.1082'\nvalueset &quot;Care Services in Long-Term Residential Facility&quot;: 'http://cts.nlm.nih.gov/fhir/ValueSet/2.16.840.1.113883.3.464.1003.101.12.1014'\nvalueset &quot;Dementia Medications&quot;: 'http://cts.nlm.nih.gov/fhir/ValueSet/2.16.840.1.113883.3.464.1003.196.12.1510'\nvalueset &quot;ED&quot;: 'http://cts.nlm.nih.gov/fhir/ValueSet/2.16.840.1.113883.3.464.1003.101.12.1085'\nvalueset &quot;Frailty Device&quot;: 'http://cts.nlm.nih.gov/fhir/ValueSet/2.16.840.1.113883.3.464.1003.118.12.1300'\nvalueset &quot;Frailty Diagnosis&quot;: 'http://cts.nlm.nih.gov/fhir/ValueSet/2.16.840.1.113883.3.464.1003.113.12.1074'\nvalueset &quot;Frailty Encounter&quot;: 'http://cts.nlm.nih.gov/fhir/ValueSet/2.16.840.1.113883.3.464.1003.101.12.1088'\nvalueset &quot;Frailty Symptom&quot;: 'http://cts.nlm.nih.gov/fhir/ValueSet/2.16.840.1.113883.3.464.1003.113.12.1075'\nvalueset &quot;Nonacute Inpatient&quot;: 'http://cts.nlm.nih.gov/fhir/ValueSet/2.16.840.1.113883.3.464.1003.101.12.1084'\nvalueset &quot;Nursing Facility Visit&quot;: 'http://cts.nlm.nih.gov/fhir/ValueSet/2.16.840.1.113883.3.464.1003.101.12.1012'\nvalueset &quot;Observation&quot;: 'http://cts.nlm.nih.gov/fhir/ValueSet/2.16.840.1.113883.3.464.1003.101.12.1086'\nvalueset &quot;Outpatient&quot;: 'http://cts.nlm.nih.gov/fhir/ValueSet/2.16.840.1.113883.3.464.1003.101.12.1087'\n\ncode &quot;Birth date&quot;: '21112-8' from &quot;LOINC&quot; display 'Birth date'\n\nparameter &quot;Measurement Period&quot; Interval&lt;DateTime&gt;\n\ncontext Patient\n\ndefine &quot;Advanced Illness Diagnoses&quot;:\n    [Condition: &quot;Advanced Illness&quot;] AdvancedIllnessDiagnosis\n\ndefine &quot;Outpatient Encounters with Advanced Illness&quot;:\n\t( [Encounter: &quot;Outpatient&quot;]\n\t\tunion [Encounter: &quot;Observation&quot;]\n\t\tunion [Encounter: &quot;ED&quot;]\n\t\tunion [Encounter: &quot;Nonacute Inpatient&quot;] ) OutpatientEncounter\n\t\twith &quot;Advanced Illness Diagnoses&quot; AdvancedIllnessDiagnosis\n            such that exists (\n                OutpatientEncounter.diagnosis.condition Condition\n                    where EndsWith(Condition.reference, AdvancedIllnessDiagnosis.id)\n            )\n            and OutpatientEncounter.period starts 2 years or less before\n\t\t\tend of &quot;Measurement Period&quot;\n\ndefine &quot;Long Term Care Periods During Measurement Period&quot;:\n\t( [Encounter: &quot;Care Services in Long-Term Residential Facility&quot;]\n\t\tunion [Encounter: &quot;Nursing Facility Visit&quot;] ) LongTermFacilityEncounter\n\t\twhere LongTermFacilityEncounter.period overlaps &quot;Measurement Period&quot;\n\t\treturn LongTermFacilityEncounter.period\n\t\t\tintersect &quot;Measurement Period&quot;\n\ndefine &quot;Inpatient Encounter with Advanced Illness&quot;:\n\t[Encounter: &quot;Acute Inpatient&quot;] InpatientEncounter\n\t\twith &quot;Advanced Illness Diagnoses&quot; AdvancedIllnessDiagnosis\n            such that exists (\n                InpatientEncounter.diagnosis.condition Condition\n                    where EndsWith(Condition.reference, AdvancedIllnessDiagnosis.id)\n            )\n\t\t\tand InpatientEncounter.period starts 2 years or less before\n\t\t\tend of &quot;Measurement Period&quot;\n\ndefine &quot;Dementia Medications In Year Before or During Measurement Period&quot;:\n\t[&quot;MedicationDispense&quot;: &quot;Dementia Medications&quot;] DementiaMed\n\t\twhere DementiaMed.whenHandedOver as dateTime during day of Interval[\n            ( start of &quot;Measurement Period&quot; - 1 year ), end of &quot;Measurement Period&quot;\n        ]\n\ndefine &quot;Has Criteria Indicating Frailty&quot;:\n\texists ( [DeviceRequest: &quot;Frailty Device&quot;] FrailtyDeviceOrder\n\t\t\twhere FrailtyDeviceOrder.authoredOn during day of &quot;Measurement Period&quot;\n\t)\n\t\tor exists ( [DeviceUseStatement: &quot;Frailty Device&quot;] FrailtyDeviceUse\n\t\t\t\twhere FrailtyDeviceUse.timing as Period overlaps &quot;Measurement Period&quot;\n                    or FrailtyDeviceUse.timing as dateTime during day of &quot;Measurement Period&quot;\n\t\t)\n\t\tor exists ( [Condition: &quot;Frailty Diagnosis&quot;] FrailtyDiagnosis\n\t\t\t\twhere FrailtyDiagnosis.onset as Period overlaps &quot;Measurement Period&quot;\n                    or FrailtyDiagnosis.onset as dateTime during day of &quot;Measurement Period&quot;\n\t\t)\n\t\tor exists ( [Encounter: &quot;Frailty Encounter&quot;] FrailtyEncounter\n\t\t\t\twhere FrailtyEncounter.period overlaps &quot;Measurement Period&quot;\n\t\t)\n\t\tor exists ( [Observation: &quot;Frailty Symptom&quot;] FrailtySymptomObservation\n\t\t\t\twhere FrailtySymptomObservation.effective as Period overlaps &quot;Measurement Period&quot;\n                    or FrailtySymptomObservation.effective as dateTime during day of &quot;Measurement Period&quot;\n\t\t)\n\ndefine &quot;Advanced Illness and Frailty Exclusion Including Over Age 80&quot;:\n\t//If the measure includes populations age 80 and older, then use this logic:\n\t(\n        Global.&quot;CalendarAgeInYearsAt&quot;(FHIRHelpers.ToDate(Patient.birthDate), start of &quot;Measurement Period&quot;)in Interval[66, 80]\n            and &quot;Has Criteria Indicating Frailty&quot;\n            and ( Count(&quot;Outpatient Encounters with Advanced Illness&quot;)&gt;= 2\n                or exists ( &quot;Inpatient Encounter with Advanced Illness&quot; )\n                or exists &quot;Dementia Medications In Year Before or During Measurement Period&quot;\n            )\n\t)\n\t\tor (\n            Global.&quot;CalendarAgeInYearsAt&quot;(FHIRHelpers.ToDate(Patient.birthDate), start of &quot;Measurement Period&quot;)&gt;= 81\n\t\t\t    and &quot;Has Criteria Indicating Frailty&quot;\n\t\t)\n\ndefine &quot;Advanced Illness and Frailty Exclusion Including Under Age 80&quot;:\n\t//If the measure does NOT include populations age 80 and older, then use this logic:\n\tGlobal.&quot;CalendarAgeInYearsAt&quot;(FHIRHelpers.ToDate(Patient.birthDate), start of &quot;Measurement Period&quot;)&gt;= 65\n        and &quot;Has Criteria Indicating Frailty&quot;\n        and ( Count(&quot;Outpatient Encounters with Advanced Illness&quot;)&gt;= 2\n            or exists ( &quot;Inpatient Encounter with Advanced Illness&quot; )\n            or exists &quot;Dementia Medications In Year Before or During Measurement Period&quot;\n        )\n\ndefine &quot;Has Spent More Than 90 Days in Long Term Care&quot;:\n\t&quot;Days Spent in Long Term Care During Measurement Period&quot; &gt; 90\n\ndefine &quot;Days Spent in Long Term Care During Measurement Period&quot;:\n\t&quot;CumulativeDays&quot;(&quot;Long Term Care Periods During Measurement Period&quot;)\n\ndefine function &quot;CumulativeDays&quot;(Intervals List&lt;Interval&lt;DateTime&gt;&gt; ):\n\tSum((collapse Intervals)CollapsedInterval\n\t\t\treturn all duration in days of CollapsedInterval\n\t)\n</code></pre>\n                    \n                    \n                </td>\n            </tr>\n        \n    </table>\n</div>"
      },
      "version": "4.0.000",
      "name": "AdvancedIllnessandFrailtyExclusion_FHIR3",
      "status": "active",
      "experimental": true,
      "type": {
        "coding": [ {
          "system": "http://hl7.org/fhir/codesystem-library-type.html",
          "code": "logic-library"
        } ]
      },
      "relatedArtifact": [ {
        "type": "depends-on",
        "resource": {
          "reference": "Library/library-FHIRHelpers-3.0.0"
        }
      }, {
        "type": "depends-on",
        "resource": {
          "reference": "Library/library-MATGlobalCommonFunctions-FHIR3-2.0.000"
        }
      } ],
      "dataRequirement": [ {
        "type": "Condition",
        "codeFilter": [ {
          "path": "code",
          "valueSetString": "http://cts.nlm.nih.gov/fhir/ValueSet/2.16.840.1.113883.3.464.1003.110.12.1082"
        } ]
      }, {
        "type": "Encounter",
        "codeFilter": [ {
          "path": "type",
          "valueSetString": "http://cts.nlm.nih.gov/fhir/ValueSet/2.16.840.1.113883.3.464.1003.101.12.1087"
        } ]
      }, {
        "type": "Encounter",
        "codeFilter": [ {
          "path": "type",
          "valueSetString": "http://cts.nlm.nih.gov/fhir/ValueSet/2.16.840.1.113883.3.464.1003.101.12.1086"
        } ]
      }, {
        "type": "Encounter",
        "codeFilter": [ {
          "path": "type",
          "valueSetString": "http://cts.nlm.nih.gov/fhir/ValueSet/2.16.840.1.113883.3.464.1003.101.12.1085"
        } ]
      }, {
        "type": "Encounter",
        "codeFilter": [ {
          "path": "type",
          "valueSetString": "http://cts.nlm.nih.gov/fhir/ValueSet/2.16.840.1.113883.3.464.1003.101.12.1084"
        } ]
      }, {
        "type": "Encounter",
        "codeFilter": [ {
          "path": "type",
          "valueSetString": "http://cts.nlm.nih.gov/fhir/ValueSet/2.16.840.1.113883.3.464.1003.101.12.1014"
        } ]
      }, {
        "type": "Encounter",
        "codeFilter": [ {
          "path": "type",
          "valueSetString": "http://cts.nlm.nih.gov/fhir/ValueSet/2.16.840.1.113883.3.464.1003.101.12.1012"
        } ]
      }, {
        "type": "Encounter",
        "codeFilter": [ {
          "path": "type",
          "valueSetString": "http://cts.nlm.nih.gov/fhir/ValueSet/2.16.840.1.113883.3.464.1003.101.12.1083"
        } ]
      }, {
        "type": "MedicationDispense",
        "codeFilter": [ {
          "path": "medication",
          "valueSetString": "http://cts.nlm.nih.gov/fhir/ValueSet/2.16.840.1.113883.3.464.1003.196.12.1510"
        } ]
      }, {
        "type": "DeviceRequest",
        "codeFilter": [ {
          "path": "code",
          "valueSetString": "http://cts.nlm.nih.gov/fhir/ValueSet/2.16.840.1.113883.3.464.1003.118.12.1300"
        } ]
      }, {
        "type": "DeviceUseStatement"
      }, {
        "type": "Condition",
        "codeFilter": [ {
          "path": "code",
          "valueSetString": "http://cts.nlm.nih.gov/fhir/ValueSet/2.16.840.1.113883.3.464.1003.113.12.1074"
        } ]
      }, {
        "type": "Encounter",
        "codeFilter": [ {
          "path": "type",
          "valueSetString": "http://cts.nlm.nih.gov/fhir/ValueSet/2.16.840.1.113883.3.464.1003.101.12.1088"
        } ]
      }, {
        "type": "Observation",
        "codeFilter": [ {
          "path": "code",
          "valueSetString": "http://cts.nlm.nih.gov/fhir/ValueSet/2.16.840.1.113883.3.464.1003.113.12.1075"
        } ]
      } ],
      "content": [ {
        "contentType": "application/elm+xml",
        "data": ""
      }, {
        "contentType": "text/cql",
        "data": ""
      } ]
    },
    "request": {
      "method": "PUT",
      "url": "Library/library-AdvancedIllnessandFrailtyExclusion-FHIR3-4.0.000"
    }
  }, {
    "resource": {
      "resourceType": "Encounter",
      "id": "denom-EXM165-FHIR3-1",
      "meta": {
        "profile": [ "http://hl7.org/fhir/us/core/StructureDefinition/us-core-encounter" ]
      },
      "status": "finished",
      "class": {
        "system": "http://terminology.hl7.org/CodeSystem/v3-ActCode",
        "code": "AMB",
        "display": "ambulatory"
      },
      "type": [ {
        "coding": [ {
          "system": "http://www.ama-assn.org/go/cpt",
          "code": "99201",
          "display": "Office or other outpatient visit for the evaluation and management of a new patient, which requires these 3 key components: A problem focused history; A problem focused examination; Straightforward medical decision making. Counseling and/or coordination of care with other physicians, other qualified health care professionals, or agencies are provided consistent with the nature of the problem(s) and the patient's and/or family's needs. Usually, the presenting problem(s) are self limited or minor. Typically, 10 minutes are spent face-to-face with the patient and/or family."
        } ]
      } ],
      "subject": {
        "reference": "Patient/denom-EXM165-FHIR3"
      },
      "period": {
        "start": "2019-05-30T00:00:00-00:00",
        "end": "2019-05-31T00:00:00-00:00"
      }
    },
    "request": {
      "method": "PUT",
      "url": "Encounter/denom-EXM165-FHIR3-1"
    }
  }, {
    "resource": {
      "resourceType": "Observation",
      "id": "numer-EXM165-FHIR3-4",
      "meta": {
        "profile": [ "http://www.http://hl7.org/fhir/FHIR3/observation" ]
      },
      "status": "final",
      "code": {
        "coding": [ {
          "system": "http://loinc.org",
          "code": "85354-9",
          "display": "blood pressure"
        } ]
      },
      "subject": {
        "reference": "Patient/numer-EXM165-FHIR3"
      },
      "effectiveDateTime": "2019-11-01T00:00:00",
      "component": [ {
        "code": {
          "coding": [ {
            "system": "http://loinc.org",
            "code": "8480-6",
            "display": "Systolic blood pressure"
          } ]
        },
        "valueQuantity": {
          "value": 139,
          "unit": "mm[Hg]"
        }
      } ]
    },
    "request": {
      "method": "PUT",
      "url": "Observation/numer-EXM165-FHIR3-4"
    }
  }, {
    "resource": {
      "resourceType": "Bundle",
      "id": "tests-Condition-bundle",
      "type": "transaction",
      "entry": [ {
        "resource": {
          "resourceType": "Condition",
          "id": "denom-EXM165-FHIR3-2",
          "meta": {
            "profile": [ "http://hl7.org/fhir/us/core/StructureDefinition/us-core-condition" ]
          },
          "verificationStatus": "confirmed",
          "category": [ {
            "coding": [ {
              "system": "http://terminology.hl7.org/CodeSystem/condition-category",
              "code": "encounter-diagnosis",
              "display": "Encounter Diagnosis"
            } ]
          } ],
          "code": {
            "coding": [ {
              "system": "http://snomed.info/sct",
              "code": "59621000",
              "display": "Essential hypertension (disorder)"
            } ]
          },
          "subject": {
            "reference": "Patient/denom-EXM165-FHIR3"
          },
          "assertedDate": "2019-04-16T13:51:21-06:00"
        },
        "request": {
          "method": "PUT",
          "url": "Condition/denom-EXM165-FHIR3-2"
        }
      } ]
    },
    "request": {
      "method": "PUT",
      "url": "tests-Condition-bundle"
    }
  }, {
    "resource": {
      "resourceType": "Bundle",
      "id": "tests-Encounter-bundle",
      "type": "transaction",
      "entry": [ {
        "resource": {
          "resourceType": "Encounter",
          "id": "denom-EXM165-FHIR3-1",
          "meta": {
            "profile": [ "http://hl7.org/fhir/us/core/StructureDefinition/us-core-encounter" ]
          },
          "status": "finished",
          "class": {
            "system": "http://terminology.hl7.org/CodeSystem/v3-ActCode",
            "code": "AMB",
            "display": "ambulatory"
          },
          "type": [ {
            "coding": [ {
              "system": "http://www.ama-assn.org/go/cpt",
              "code": "99201",
              "display": "Office or other outpatient visit for the evaluation and management of a new patient, which requires these 3 key components: A problem focused history; A problem focused examination; Straightforward medical decision making. Counseling and/or coordination of care with other physicians, other qualified health care professionals, or agencies are provided consistent with the nature of the problem(s) and the patient's and/or family's needs. Usually, the presenting problem(s) are self limited or minor. Typically, 10 minutes are spent face-to-face with the patient and/or family."
            } ]
          } ],
          "subject": {
            "reference": "Patient/denom-EXM165-FHIR3"
          },
          "period": {
            "start": "2019-05-30T00:00:00-00:00",
            "end": "2019-05-31T00:00:00-00:00"
          }
        },
        "request": {
          "method": "PUT",
          "url": "Encounter/denom-EXM165-FHIR3-1"
        }
      } ]
    },
    "request": {
      "method": "PUT",
      "url": "tests-Encounter-bundle"
    }
  }, {
    "resource": {
      "resourceType": "Condition",
      "id": "denom-EXM165-FHIR3-2",
      "meta": {
        "profile": [ "http://hl7.org/fhir/us/core/StructureDefinition/us-core-condition" ]
      },
      "verificationStatus": "confirmed",
      "category": [ {
        "coding": [ {
          "system": "http://terminology.hl7.org/CodeSystem/condition-category",
          "code": "encounter-diagnosis",
          "display": "Encounter Diagnosis"
        } ]
      } ],
      "code": {
        "coding": [ {
          "system": "http://snomed.info/sct",
          "code": "59621000",
          "display": "Essential hypertension (disorder)"
        } ]
      },
      "subject": {
        "reference": "Patient/denom-EXM165-FHIR3"
      },
      "assertedDate": "2019-04-16T13:51:21-06:00"
    },
    "request": {
      "method": "PUT",
      "url": "Condition/denom-EXM165-FHIR3-2"
    }
  }, {
    "resource": {
      "resourceType": "Library",
      "id": "library-EXM165-FHIR3-8.5.000",
      "text": {
        "status": "generated",
        "div": "<div xmlns=\"http://www.w3.org/1999/xhtml\"><table class=\"grid dict\"><tr><th scope=\"row\"><b>Id: </b></th><td style=\"padding-left: 25px; padding-right: 25px;\">library-EXM165-FHIR3-8.5.000</td></tr><tr><th scope=\"row\"><b>Type: </b></th><td style=\"padding-right: 25px;\"> Logic Library </td></tr><tr><th scope=\"row\"><b>Version: </b></th><td style=\"padding-left: 25px; padding-right: 25px;\">8.5.000</td></tr><tr><th scope=\"row\"><b>Status: </b></th><td style=\"padding-left: 25px; padding-right: 25px;\">active</td></tr><tr style=\"vertical-align: top;\"><th rowspan=\"4\" scope=\"row\"><b>Related: </b></th><td style=\"padding-left: 25px; padding-right: 25px;\"><p style=\"margin-bottom: 5px;\"><b>type: </b><span>depends-on</span></p><p style=\"margin-bottom: 5px;\"><b>Resource: </b><br/><span><span style=\"padding-left: 25px;\"><b>reference: </b><span>Library/library-FHIRHelpers-3.0.0</span></span></span></p></td></tr><tr style=\"vertical-align: top;\"><td style=\"padding-left: 25px; padding-right: 25px;\"><p style=\"margin-bottom: 5px;\"><b>type: </b><span>depends-on</span></p><p style=\"margin-bottom: 5px;\"><b>Resource: </b><br/><span><span style=\"padding-left: 25px;\"><b>reference: </b><span>Library/library-MATGlobalCommonFunctions-FHIR3-2.0.000</span></span></span></p></td></tr><tr style=\"vertical-align: top;\"><td style=\"padding-left: 25px; padding-right: 25px;\"><p style=\"margin-bottom: 5px;\"><b>type: </b><span>depends-on</span></p><p style=\"margin-bottom: 5px;\"><b>Resource: </b><br/><span><span style=\"padding-left: 25px;\"><b>reference: </b><span>Library/library-AdultOutpatientEncounters-FHIR3-1.1.000</span></span></span></p></td></tr><tr style=\"vertical-align: top;\"><td style=\"padding-left: 25px; padding-right: 25px;\"><p style=\"margin-bottom: 5px;\"><b>type: </b><span>depends-on</span></p><p style=\"margin-bottom: 5px;\"><b>Resource: </b><br/><span><span style=\"padding-left: 25px;\"><b>reference: </b><span>Library/library-AdvancedIllnessandFrailtyExclusion-FHIR3-4.0.000</span></span></span></p></td></tr><tr style=\"vertical-align: top;\"><th rowspan=\"13\" scope=\"row\"><b>Data Requirements: </b></th><td style=\"padding-left: 25px; padding-right: 25px;\"><div><p style=\"margin-bottom: 5px;\"><b>type: </b><span>Observation</span></p><p style=\"margin-bottom: 5px;\"><b>code filter:</b><br/><span style=\"padding-left: 25px;\"><b>path: </b><span>code</span></span></p></div></td></tr><tr style=\"vertical-align: top;\"><td style=\"padding-left: 25px; padding-right: 25px;\"><div><p style=\"margin-bottom: 5px;\"><b>type: </b><span>Observation</span></p><p style=\"margin-bottom: 5px;\"><b>code filter:</b><br/><span style=\"padding-left: 25px;\"><b>path: </b><span>code</span></span></p></div></td></tr><tr style=\"vertical-align: top;\"><td style=\"padding-left: 25px; padding-right: 25px;\"><div><p style=\"margin-bottom: 5px;\"><b>type: </b><span>Observation</span></p><p style=\"margin-bottom: 5px;\"><b>code filter:</b><br/><span style=\"padding-left: 25px;\"><b>path: </b><span>code</span></span></p></div></td></tr><tr style=\"vertical-align: top;\"><td style=\"padding-left: 25px; padding-right: 25px;\"><div><p style=\"margin-bottom: 5px;\"><b>type: </b><span>Observation</span></p></div></td></tr><tr style=\"vertical-align: top;\"><td style=\"padding-left: 25px; padding-right: 25px;\"><div><p style=\"margin-bottom: 5px;\"><b>type: </b><span>Condition</span></p><p style=\"margin-bottom: 5px;\"><b>code filter:</b><br/><span style=\"padding-left: 25px;\"><b>path: </b><span>code</span></span><br/><span style=\"padding-left: 25px;\"><b>valueset: </b><span>http://cts.nlm.nih.gov/fhir/ValueSet/2.16.840.1.113883.3.464.1003.104.12.1011</span></span></p></div></td></tr><tr style=\"vertical-align: top;\"><td style=\"padding-left: 25px; padding-right: 25px;\"><div><p style=\"margin-bottom: 5px;\"><b>type: </b><span>Condition</span></p><p style=\"margin-bottom: 5px;\"><b>code filter:</b><br/><span style=\"padding-left: 25px;\"><b>path: </b><span>code</span></span><br/><span style=\"padding-left: 25px;\"><b>valueset: </b><span>http://cts.nlm.nih.gov/fhir/ValueSet/2.16.840.1.113883.3.526.3.378</span></span></p></div></td></tr><tr style=\"vertical-align: top;\"><td style=\"padding-left: 25px; padding-right: 25px;\"><div><p style=\"margin-bottom: 5px;\"><b>type: </b><span>Condition</span></p><p style=\"margin-bottom: 5px;\"><b>code filter:</b><br/><span style=\"padding-left: 25px;\"><b>path: </b><span>code</span></span><br/><span style=\"padding-left: 25px;\"><b>valueset: </b><span>http://cts.nlm.nih.gov/fhir/ValueSet/2.16.840.1.113883.3.526.3.353</span></span></p></div></td></tr><tr style=\"vertical-align: top;\"><td style=\"padding-left: 25px; padding-right: 25px;\"><div><p style=\"margin-bottom: 5px;\"><b>type: </b><span>Condition</span></p><p style=\"margin-bottom: 5px;\"><b>code filter:</b><br/><span style=\"padding-left: 25px;\"><b>path: </b><span>code</span></span><br/><span style=\"padding-left: 25px;\"><b>valueset: </b><span>http://cts.nlm.nih.gov/fhir/ValueSet/2.16.840.1.113883.3.464.1003.109.12.1029</span></span></p></div></td></tr><tr style=\"vertical-align: top;\"><td style=\"padding-left: 25px; padding-right: 25px;\"><div><p style=\"margin-bottom: 5px;\"><b>type: </b><span>Condition</span></p><p style=\"margin-bottom: 5px;\"><b>code filter:</b><br/><span style=\"padding-left: 25px;\"><b>path: </b><span>code</span></span><br/><span style=\"padding-left: 25px;\"><b>valueset: </b><span>http://cts.nlm.nih.gov/fhir/ValueSet/2.16.840.1.113883.3.526.3.1002</span></span></p></div></td></tr><tr style=\"vertical-align: top;\"><td style=\"padding-left: 25px; padding-right: 25px;\"><div><p style=\"margin-bottom: 5px;\"><b>type: </b><span>Encounter</span></p><p style=\"margin-bottom: 5px;\"><b>code filter:</b><br/><span style=\"padding-left: 25px;\"><b>path: </b><span>type</span></span><br/><span style=\"padding-left: 25px;\"><b>valueset: </b><span>http://cts.nlm.nih.gov/fhir/ValueSet/2.16.840.1.113883.3.464.1003.109.12.1014</span></span></p></div></td></tr><tr style=\"vertical-align: top;\"><td style=\"padding-left: 25px; padding-right: 25px;\"><div><p style=\"margin-bottom: 5px;\"><b>type: </b><span>Procedure</span></p><p style=\"margin-bottom: 5px;\"><b>code filter:</b><br/><span style=\"padding-left: 25px;\"><b>path: </b><span>code</span></span><br/><span style=\"padding-left: 25px;\"><b>valueset: </b><span>http://cts.nlm.nih.gov/fhir/ValueSet/2.16.840.1.113883.3.464.1003.109.12.1011</span></span></p></div></td></tr><tr style=\"vertical-align: top;\"><td style=\"padding-left: 25px; padding-right: 25px;\"><div><p style=\"margin-bottom: 5px;\"><b>type: </b><span>Procedure</span></p><p style=\"margin-bottom: 5px;\"><b>code filter:</b><br/><span style=\"padding-left: 25px;\"><b>path: </b><span>code</span></span><br/><span style=\"padding-left: 25px;\"><b>valueset: </b><span>http://cts.nlm.nih.gov/fhir/ValueSet/2.16.840.1.113883.3.464.1003.109.12.1012</span></span></p></div></td></tr><tr style=\"vertical-align: top;\"><td style=\"padding-left: 25px; padding-right: 25px;\"><div><p style=\"margin-bottom: 5px;\"><b>type: </b><span>Procedure</span></p><p style=\"margin-bottom: 5px;\"><b>code filter:</b><br/><span style=\"padding-left: 25px;\"><b>path: </b><span>code</span></span><br/><span style=\"padding-left: 25px;\"><b>valueset: </b><span>http://cts.nlm.nih.gov/fhir/ValueSet/2.16.840.1.113883.3.464.1003.109.12.1013</span></span></p></div></td></tr><tr style=\"vertical-align: top;\"><th scope=\"row\"><b>Content: </b></th><td style=\"padding-left: 25px; padding-right: 25px;\"><b>type: </b><span>text/cql</span></td></tr><tr><td colspan=\"2\" style=\"padding-left: 25px; padding-right: 25px;\"><pre><code class=\"language-cql\">library EXM165_FHIR3 version '8.5.000'\n\n/*\nControlling High Blood Pressure (CBP)\n*/\n\nusing FHIR version '3.0.0'\n\ninclude FHIRHelpers version '3.0.0'\ninclude MATGlobalCommonFunctions_FHIR3 version '2.0.000' called Common\ninclude AdultOutpatientEncounters_FHIR3 version '1.1.000' called AdultOutpatientEncounters\ninclude AdvancedIllnessandFrailtyExclusion_FHIR3 version '4.0.000' called FrailtyLTI\n//include NCQACommon_FHIR version '3.10.000' called Common\n//include Participation_FHIR version '1.0.0'\n\ncodesystem &quot;LOINC&quot;: 'http://loinc.org'\n\nvalueset &quot;Chronic Kidney Disease, Stage 5&quot;: 'http://cts.nlm.nih.gov/fhir/ValueSet/2.16.840.1.113883.3.526.3.1002'\nvalueset &quot;Dialysis Services&quot;: 'http://cts.nlm.nih.gov/fhir/ValueSet/2.16.840.1.113883.3.464.1003.109.12.1013'\nvalueset &quot;ED&quot;: 'http://cts.nlm.nih.gov/fhir/ValueSet/2.16.840.1.113883.3.464.1003.101.12.1085'\nvalueset &quot;Encounter Inpatient&quot;: 'http://cts.nlm.nih.gov/fhir/ValueSet/2.16.840.1.113883.3.666.5.307'\nvalueset &quot;End Stage Renal Disease&quot;: 'http://cts.nlm.nih.gov/fhir/ValueSet/2.16.840.1.113883.3.526.3.353'\nvalueset &quot;ESRD Monthly Outpatient Services&quot;: 'http://cts.nlm.nih.gov/fhir/ValueSet/2.16.840.1.113883.3.464.1003.109.12.1014'\nvalueset &quot;Essential Hypertension&quot;: 'http://cts.nlm.nih.gov/fhir/ValueSet/2.16.840.1.113883.3.464.1003.104.12.1011'\nvalueset &quot;Ethnicity&quot;: 'http://cts.nlm.nih.gov/fhir/ValueSet/2.16.840.1.114222.4.11.837'\nvalueset &quot;Kidney Transplant&quot;: 'http://cts.nlm.nih.gov/fhir/ValueSet/2.16.840.1.113883.3.464.1003.109.12.1012'\nvalueset &quot;Kidney Transplant Recipient&quot;: 'http://cts.nlm.nih.gov/fhir/ValueSet/2.16.840.1.113883.3.464.1003.109.12.1029'\nvalueset &quot;ONC Administrative Sex&quot;: 'http://cts.nlm.nih.gov/fhir/ValueSet/2.16.840.1.113762.1.4.1'\nvalueset &quot;Payer&quot;: 'http://cts.nlm.nih.gov/fhir/ValueSet/2.16.840.1.114222.4.11.3591'\nvalueset &quot;Pregnancy&quot;: 'http://cts.nlm.nih.gov/fhir/ValueSet/2.16.840.1.113883.3.526.3.378'\nvalueset &quot;Race&quot;: 'http://cts.nlm.nih.gov/fhir/ValueSet/2.16.840.1.114222.4.11.836'\nvalueset &quot;Vascular Access for Dialysis&quot;: 'http://cts.nlm.nih.gov/fhir/ValueSet/2.16.840.1.113883.3.464.1003.109.12.1011'\n\ncode &quot;Birth date&quot;: '21112-8' from &quot;LOINC&quot; display 'Birth date'\ncode &quot;Blood pressure&quot;: '85354-9' from &quot;LOINC&quot; display 'blood pressure'\ncode &quot;Diastolic blood pressure&quot;: '8462-4' from &quot;LOINC&quot; display 'Diastolic blood pressure'\ncode &quot;Systolic blood pressure&quot;: '8480-6' from &quot;LOINC&quot; display 'Systolic blood pressure'\n\nparameter &quot;Measurement Period&quot; Interval&lt;DateTime&gt; default Interval[@2019-01-01T00:00:00.0, @2020-01-01T00:00:00.0)\n\ncontext Patient\n\n//define &quot;SDE Ethnicity&quot;:\n//\t[&quot;Patient Characteristic Ethnicity&quot;: &quot;Ethnicity&quot;]\n\n//define &quot;SDE Payer&quot;:\n//\t[&quot;Patient Characteristic Payer&quot;: &quot;Payer&quot;]\n\n//define &quot;SDE Race&quot;:\n//\t[&quot;Patient Characteristic Race&quot;: &quot;Race&quot;]\n\n//define &quot;SDE Sex&quot;:\n//\t[&quot;Patient Characteristic Sex&quot;: &quot;ONC Administrative Sex&quot;]\n\ndefine &quot;Has Diastolic Blood Pressure Less Than 90&quot;:\n\t&quot;Lowest Diastolic Reading on Most Recent Blood Pressure Day&quot;.value &lt; 90\n\ndefine &quot;Has Systolic Blood Pressure Less Than 140&quot;:\n\t&quot;Lowest Systolic Reading on Most Recent Blood Pressure Day&quot;.value &lt; 140\n\ndefine &quot;Lowest Diastolic Reading on Most Recent Blood Pressure Day&quot;:\n\tFirst(\n    &quot;Qualifying Diastolic Blood Pressure Reading&quot; DBPReading\n\t\t  where DBPReading.effective same day as &quot;Most Recent Blood Pressure Day&quot;\n      return singleton from (\n        DBPReading.component C\n          where C.code ~ &quot;Diastolic blood pressure&quot;\n          return C.value as Quantity\n      )\n\t\t\tsort ascending\n\t)\n\ndefine &quot;Lowest Systolic Reading on Most Recent Blood Pressure Day&quot;:\n\tFirst(\n    &quot;Qualifying Systolic Blood Pressure Reading&quot; SBPReading\n\t\t  where SBPReading.effective same day as &quot;Most Recent Blood Pressure Day&quot;\n      return singleton from (\n        SBPReading.component C\n          where C.code ~ &quot;Systolic blood pressure&quot;\n          return C.value as Quantity\n      )\n      sort ascending\n\t)\n\ndefine &quot;Blood Pressure Days&quot;:\n\t( ( &quot;Qualifying Diastolic Blood Pressure Reading&quot; DBPExam\n\t\t\t\treturn date from DBPExam.effective\n\t\t)\n\t\t\t//intersect ( &quot;Qualifying Systolic Blood Pressure Reading&quot; SBPExam\n\t\t\tintersect ( &quot;Qualifying Systolic Blood Pressure Reading&quot; SBPExam\n\t\t\t\t\treturn date from SBPExam.effective\n\t\t\t)\n\t)\n\ndefine &quot;Most Recent Blood Pressure Day&quot;:\n\tMax(&quot;Blood Pressure Days&quot;)\n\n\tdefine &quot;Qualifying Diastolic Blood Pressure Reading Test&quot;:\n\t\t[&quot;Observation&quot;: &quot;Blood pressure&quot;] BloodPressure\n\t\t  where BloodPressure.status in {'final', 'amended'}\n\t     // and BloodPressure.effective during &quot;Measurement Period&quot;\n\t      // TODO: Turn this into a value set\n\t\t    //and not (GetEncounter(BloodPressure.&quot;context&quot;).class.code in { 'EMER', 'IMP', 'ACUTE', 'NONAC', 'PRENC', 'SS' })\n\t      and exists (\n\t        BloodPressure.component DiastolicBP\n\t          where FHIRHelpers.ToConcept(DiastolicBP.code) ~ &quot;Diastolic blood pressure&quot;\n\t            and DiastolicBP.value.unit = 'mm[Hg]'\n\t      )\n\ndefine &quot;Qualifying Diastolic Blood Pressure Reading&quot;:\n\t[&quot;Observation&quot;: &quot;Blood pressure&quot;] BloodPressure\n\t  where BloodPressure.status in {'final', 'amended'}\n      and BloodPressure.effective as dateTime during &quot;Measurement Period&quot;\n      // TODO: Turn this into a value set\n\t    //and not (GetEncounter(BloodPressure.&quot;context&quot;).class.code in { 'EMER', 'IMP', 'ACUTE', 'NONAC', 'PRENC', 'SS' })\n      and exists (\n        BloodPressure.component DiastolicBP\n          where FHIRHelpers.ToConcept(DiastolicBP.code) ~ &quot;Diastolic blood pressure&quot;\n            and DiastolicBP.value.unit = 'mm[Hg]'\n      )\n//Note: Once we can specify that the FHIR BP Profile must be used, then status, code, and unit will not be required\n\ndefine &quot;Qualifying Systolic Blood Pressure Reading&quot;:\n\t[&quot;Observation&quot;: &quot;Blood pressure&quot;] BloodPressure\n\t  where BloodPressure.status in {'final', 'amended'}\n      and BloodPressure.effective as dateTime during &quot;Measurement Period&quot;\n      // TODO: Turn this into a value set\n\t    //and not (GetEncounter(BloodPressure.&quot;context&quot;).class.code in { 'EMER', 'IMP', 'ACUTE', 'NONAC', 'PRENC', 'SS'})\n      and exists (\n        BloodPressure.component SystolicBP\n          where FHIRHelpers.ToConcept(SystolicBP.code) ~ &quot;Systolic blood pressure&quot;\n            and SystolicBP.value.unit = 'mm[Hg]'\n      )\n//Note: Once we can specify that the FHIR BP Profile must be used, then status, code, and unit will not be required\n\ndefine &quot;Numerator&quot;:\n\t&quot;Has Diastolic Blood Pressure Less Than 90&quot;\n\t\tand &quot;Has Systolic Blood Pressure Less Than 140&quot;\n\ndefine &quot;Observations&quot;:\n\t[Observation]\n\ndefine &quot;Initial Population&quot;:\n\tCommon.CalendarAgeInYearsAt(FHIRHelpers.ToDate(Patient.birthDate), end of &quot;Measurement Period&quot;) between 18 and 85\n\t\tand exists &quot;Essential Hypertension Diagnosis&quot;\n\t\tand exists AdultOutpatientEncounters.&quot;Qualifying Encounters&quot;(&quot;Measurement Period&quot;)\n\ndefine &quot;Pregnancy Or Renal Diagnosis Exclusions&quot;:\n\t( [&quot;Condition&quot;: &quot;Pregnancy&quot;]\n\t\tunion [&quot;Condition&quot;: &quot;End Stage Renal Disease&quot;]\n\t\tunion [&quot;Condition&quot;: &quot;Kidney Transplant Recipient&quot;]\n\t\tunion [&quot;Condition&quot;: &quot;Chronic Kidney Disease, Stage 5&quot;] ) PregnancyESRDDiagnosis\n      where PregnancyESRDDiagnosis.verificationStatus = 'confirmed'\n        and PregnancyESRDDiagnosis.assertedDate before end of &quot;Measurement Period&quot;\n\ndefine &quot;Denominator&quot;:\n\t&quot;Initial Population&quot;\n\ndefine &quot;End Stage Renal Disease Encounter&quot;:\n\t[&quot;Encounter&quot;: &quot;ESRD Monthly Outpatient Services&quot;] ESRDEncounter\n\t\twhere ESRDEncounter.status.value in { 'planned', 'arrived', 'triaged', 'in-progress', 'onleave', 'finished' }\n\t\t  and ESRDEncounter.period starts before end of &quot;Measurement Period&quot;\n\ndefine &quot;End Stage Renal Disease Procedures&quot;:\n\t( [&quot;Procedure&quot;: &quot;Vascular Access for Dialysis&quot;]\n\t\tunion [&quot;Procedure&quot;: &quot;Kidney Transplant&quot;]\n\t\tunion [&quot;Procedure&quot;: &quot;Dialysis Services&quot;] ) ESRDProcedure\n\t\twhere ESRDProcedure.status = 'completed'\n      and ESRDProcedure.performed starts before end of &quot;Measurement Period&quot;\n\ndefine &quot;Essential Hypertension Diagnosis&quot;:\n\t[&quot;Condition&quot;: &quot;Essential Hypertension&quot;] Hypertension\n    where Hypertension.verificationStatus = 'confirmed'\n     and (Hypertension.assertedDate 6 months or less on or after start of &quot;Measurement Period&quot;\n      or Hypertension.assertedDate before end of &quot;Measurement Period&quot;\n    )\n\ndefine &quot;Denominator Exclusion&quot;:\n\tfalse;\n\n/*\n// TODO: Translate exclusions\ndefine &quot;Denominator Exclusion&quot;:\n\tHospice.&quot;Has Hospice&quot;\n\t\tor exists &quot;Pregnancy Or Renal Diagnosis Exclusions&quot;\n\t\tor ( exists &quot;End Stage Renal Disease Procedures&quot;\n\t\t\t\tor exists &quot;End Stage Renal Disease Encounter&quot;\n\t\t)\n\t\tor ( exists [&quot;Patient Characteristic Birthdate&quot;: &quot;Birth date&quot;] BirthDate\n\t\t    where exists (Common.CalendarAgeInYearsAt(FHIRHelpers.ToDate(Patient.birthDate), end of &quot;Measurement Period&quot;)&gt;= 65)\n\t\t    \t\t\t\t\t\t\t\t\tand FrailtyLTI.&quot;Has Spent More Than 90 Days in Long Term Care&quot;)\n\t\t\t\t\t\t\t\tor FrailtyLTI.&quot;Advanced Illness and Frailty Exclusion Including Over Age 80&quot;\n*/\n\n// TODO: Move to Common Functions &amp;&amp; fix local execution serialization for functions\n//define function GetEncounter(reference Reference): true\n//&quot;GetId&quot;(uri String): returns the last String of a Split by / List therefor cannot use in\n//singleton from ( [Encounter: id = Common.GetId(reference.reference)] )\n\t//singleton from ([Encounter] Encounter where Encounter.id.value = Common.&quot;GetId&quot;(reference.reference))\n</code></pre>\n                    \n                    \n                </td>\n            </tr>\n        \n    </table>\n</div>"
      },
      "version": "8.5.000",
      "name": "EXM165_FHIR3",
      "status": "active",
      "experimental": true,
      "type": {
        "coding": [ {
          "system": "http://hl7.org/fhir/codesystem-library-type.html",
          "code": "logic-library"
        } ]
      },
      "relatedArtifact": [ {
        "type": "depends-on",
        "resource": {
          "reference": "Library/library-FHIRHelpers-3.0.0"
        }
      }, {
        "type": "depends-on",
        "resource": {
          "reference": "Library/library-MATGlobalCommonFunctions-FHIR3-2.0.000"
        }
      }, {
        "type": "depends-on",
        "resource": {
          "reference": "Library/library-AdultOutpatientEncounters-FHIR3-1.1.000"
        }
      }, {
        "type": "depends-on",
        "resource": {
          "reference": "Library/library-AdvancedIllnessandFrailtyExclusion-FHIR3-4.0.000"
        }
      } ],
      "dataRequirement": [ {
        "type": "Observation",
        "codeFilter": [ {
          "path": "code"
        } ]
      }, {
        "type": "Observation",
        "codeFilter": [ {
          "path": "code"
        } ]
      }, {
        "type": "Observation",
        "codeFilter": [ {
          "path": "code"
        } ]
      }, {
        "type": "Observation"
      }, {
        "type": "Condition",
        "codeFilter": [ {
          "path": "code",
          "valueSetString": "http://cts.nlm.nih.gov/fhir/ValueSet/2.16.840.1.113883.3.464.1003.104.12.1011"
        } ]
      }, {
        "type": "Condition",
        "codeFilter": [ {
          "path": "code",
          "valueSetString": "http://cts.nlm.nih.gov/fhir/ValueSet/2.16.840.1.113883.3.526.3.378"
        } ]
      }, {
        "type": "Condition",
        "codeFilter": [ {
          "path": "code",
          "valueSetString": "http://cts.nlm.nih.gov/fhir/ValueSet/2.16.840.1.113883.3.526.3.353"
        } ]
      }, {
        "type": "Condition",
        "codeFilter": [ {
          "path": "code",
          "valueSetString": "http://cts.nlm.nih.gov/fhir/ValueSet/2.16.840.1.113883.3.464.1003.109.12.1029"
        } ]
      }, {
        "type": "Condition",
        "codeFilter": [ {
          "path": "code",
          "valueSetString": "http://cts.nlm.nih.gov/fhir/ValueSet/2.16.840.1.113883.3.526.3.1002"
        } ]
      }, {
        "type": "Encounter",
        "codeFilter": [ {
          "path": "type",
          "valueSetString": "http://cts.nlm.nih.gov/fhir/ValueSet/2.16.840.1.113883.3.464.1003.109.12.1014"
        } ]
      }, {
        "type": "Procedure",
        "codeFilter": [ {
          "path": "code",
          "valueSetString": "http://cts.nlm.nih.gov/fhir/ValueSet/2.16.840.1.113883.3.464.1003.109.12.1011"
        } ]
      }, {
        "type": "Procedure",
        "codeFilter": [ {
          "path": "code",
          "valueSetString": "http://cts.nlm.nih.gov/fhir/ValueSet/2.16.840.1.113883.3.464.1003.109.12.1012"
        } ]
      }, {
        "type": "Procedure",
        "codeFilter": [ {
          "path": "code",
          "valueSetString": "http://cts.nlm.nih.gov/fhir/ValueSet/2.16.840.1.113883.3.464.1003.109.12.1013"
        } ]
      } ],
      "content": [ {
        "contentType": "application/elm+xml",
        "data": ""
      }, {
        "contentType": "text/cql",
        "data": ""
      } ]
    },
    "request": {
      "method": "PUT",
      "url": "Library/library-EXM165-FHIR3-8.5.000"
    }
  }, {
    "resource": {
      "resourceType": "Library",
      "id": "library-AdultOutpatientEncounters-FHIR3-1.1.000",
      "text": {
        "status": "generated",
        "div": "<div xmlns=\"http://www.w3.org/1999/xhtml\"><table class=\"grid dict\"><tr><th scope=\"row\"><b>Id: </b></th><td style=\"padding-left: 25px; padding-right: 25px;\">library-AdultOutpatientEncounters-FHIR3-1.1.000</td></tr><tr><th scope=\"row\"><b>Type: </b></th><td style=\"padding-right: 25px;\"> Logic Library </td></tr><tr><th scope=\"row\"><b>Version: </b></th><td style=\"padding-left: 25px; padding-right: 25px;\">1.1.000</td></tr><tr><th scope=\"row\"><b>Status: </b></th><td style=\"padding-left: 25px; padding-right: 25px;\">active</td></tr><tr style=\"vertical-align: top;\"><th rowspan=\"1\" scope=\"row\"><b>Related: </b></th><td style=\"padding-left: 25px; padding-right: 25px;\"><p style=\"margin-bottom: 5px;\"><b>type: </b><span>depends-on</span></p><p style=\"margin-bottom: 5px;\"><b>Resource: </b><br/><span><span style=\"padding-left: 25px;\"><b>reference: </b><span>Library/library-FHIRHelpers-3.0.0</span></span></span></p></td></tr><tr style=\"vertical-align: top;\"><th rowspan=\"5\" scope=\"row\"><b>Data Requirements: </b></th><td style=\"padding-left: 25px; padding-right: 25px;\"><div><p style=\"margin-bottom: 5px;\"><b>type: </b><span>Encounter</span></p><p style=\"margin-bottom: 5px;\"><b>code filter:</b><br/><span style=\"padding-left: 25px;\"><b>path: </b><span>type</span></span><br/><span style=\"padding-left: 25px;\"><b>valueset: </b><span>http://cts.nlm.nih.gov/fhir/ValueSet/2.16.840.1.113883.3.464.1003.101.12.1001</span></span></p></div></td></tr><tr style=\"vertical-align: top;\"><td style=\"padding-left: 25px; padding-right: 25px;\"><div><p style=\"margin-bottom: 5px;\"><b>type: </b><span>Encounter</span></p><p style=\"margin-bottom: 5px;\"><b>code filter:</b><br/><span style=\"padding-left: 25px;\"><b>path: </b><span>type</span></span><br/><span style=\"padding-left: 25px;\"><b>valueset: </b><span>http://cts.nlm.nih.gov/fhir/ValueSet/2.16.840.1.113883.3.526.3.1240</span></span></p></div></td></tr><tr style=\"vertical-align: top;\"><td style=\"padding-left: 25px; padding-right: 25px;\"><div><p style=\"margin-bottom: 5px;\"><b>type: </b><span>Encounter</span></p><p style=\"margin-bottom: 5px;\"><b>code filter:</b><br/><span style=\"padding-left: 25px;\"><b>path: </b><span>type</span></span><br/><span style=\"padding-left: 25px;\"><b>valueset: </b><span>http://cts.nlm.nih.gov/fhir/ValueSet/2.16.840.1.113883.3.464.1003.101.12.1025</span></span></p></div></td></tr><tr style=\"vertical-align: top;\"><td style=\"padding-left: 25px; padding-right: 25px;\"><div><p style=\"margin-bottom: 5px;\"><b>type: </b><span>Encounter</span></p><p style=\"margin-bottom: 5px;\"><b>code filter:</b><br/><span style=\"padding-left: 25px;\"><b>path: </b><span>type</span></span><br/><span style=\"padding-left: 25px;\"><b>valueset: </b><span>http://cts.nlm.nih.gov/fhir/ValueSet/2.16.840.1.113883.3.464.1003.101.12.1023</span></span></p></div></td></tr><tr style=\"vertical-align: top;\"><td style=\"padding-left: 25px; padding-right: 25px;\"><div><p style=\"margin-bottom: 5px;\"><b>type: </b><span>Encounter</span></p><p style=\"margin-bottom: 5px;\"><b>code filter:</b><br/><span style=\"padding-left: 25px;\"><b>path: </b><span>type</span></span><br/><span style=\"padding-left: 25px;\"><b>valueset: </b><span>http://cts.nlm.nih.gov/fhir/ValueSet/2.16.840.1.113883.3.464.1003.101.12.1016</span></span></p></div></td></tr><tr style=\"vertical-align: top;\"><th scope=\"row\"><b>Content: </b></th><td style=\"padding-left: 25px; padding-right: 25px;\"><b>type: </b><span>text/cql</span></td></tr><tr><td colspan=\"2\" style=\"padding-left: 25px; padding-right: 25px;\"><pre><code class=\"language-cql\">library AdultOutpatientEncounters_FHIR3 version '1.1.000'\n\n/*\nThis example is a work in progress and should not be considered a final specification\nor recommendation for guidance. This example will help guide and direct the process\nof finding conventions and usage patterns that meet the needs of the various stakeholders\nin the measure development community.\n*/\n\nusing FHIR version '3.0.0'\n\ninclude FHIRHelpers version '3.0.0' called FHIRHelpers\n\nvalueset &quot;Office Visit&quot;: 'http://cts.nlm.nih.gov/fhir/ValueSet/2.16.840.1.113883.3.464.1003.101.12.1001'\nvalueset &quot;Annual Wellness Visit&quot;: 'http://cts.nlm.nih.gov/fhir/ValueSet/2.16.840.1.113883.3.526.3.1240'\nvalueset &quot;Preventive Care Services - Established Office Visit, 18 and Up&quot;: 'http://cts.nlm.nih.gov/fhir/ValueSet/2.16.840.1.113883.3.464.1003.101.12.1025'\nvalueset &quot;Preventive Care Services-Initial Office Visit, 18 and Up&quot;: 'http://cts.nlm.nih.gov/fhir/ValueSet/2.16.840.1.113883.3.464.1003.101.12.1023'\nvalueset &quot;Home Healthcare Services&quot;: 'http://cts.nlm.nih.gov/fhir/ValueSet/2.16.840.1.113883.3.464.1003.101.12.1016'\n\ncontext Patient\n\ndefine function &quot;Qualifying Encounters&quot;(MeasurementPeriod Interval&lt;DateTime&gt;):\n\t(\n\t    [Encounter: &quot;Office Visit&quot;]\n\t\tunion [Encounter: &quot;Annual Wellness Visit&quot;] \n\t\tunion [Encounter: &quot;Preventive Care Services - Established Office Visit, 18 and Up&quot;] \n\t\tunion [Encounter: &quot;Preventive Care Services-Initial Office Visit, 18 and Up&quot;] \n\t\tunion [Encounter: &quot;Home Healthcare Services&quot;]\n    ) ValidEncounter\n\t\twhere ValidEncounter.period during day of MeasurementPeriod\n\t\tand ValidEncounter.status  = 'finished' \n</code></pre>\n                    \n                    \n                </td>\n            </tr>\n        \n    </table>\n</div>"
      },
      "version": "1.1.000",
      "name": "AdultOutpatientEncounters_FHIR3",
      "status": "active",
      "experimental": true,
      "type": {
        "coding": [ {
          "system": "http://hl7.org/fhir/codesystem-library-type.html",
          "code": "logic-library"
        } ]
      },
      "relatedArtifact": [ {
        "type": "depends-on",
        "resource": {
          "reference": "Library/library-FHIRHelpers-3.0.0"
        }
      } ],
      "dataRequirement": [ {
        "type": "Encounter",
        "codeFilter": [ {
          "path": "type",
          "valueSetString": "http://cts.nlm.nih.gov/fhir/ValueSet/2.16.840.1.113883.3.464.1003.101.12.1001"
        } ]
      }, {
        "type": "Encounter",
        "codeFilter": [ {
          "path": "type",
          "valueSetString": "http://cts.nlm.nih.gov/fhir/ValueSet/2.16.840.1.113883.3.526.3.1240"
        } ]
      }, {
        "type": "Encounter",
        "codeFilter": [ {
          "path": "type",
          "valueSetString": "http://cts.nlm.nih.gov/fhir/ValueSet/2.16.840.1.113883.3.464.1003.101.12.1025"
        } ]
      }, {
        "type": "Encounter",
        "codeFilter": [ {
          "path": "type",
          "valueSetString": "http://cts.nlm.nih.gov/fhir/ValueSet/2.16.840.1.113883.3.464.1003.101.12.1023"
        } ]
      }, {
        "type": "Encounter",
        "codeFilter": [ {
          "path": "type",
          "valueSetString": "http://cts.nlm.nih.gov/fhir/ValueSet/2.16.840.1.113883.3.464.1003.101.12.1016"
        } ]
      } ],
      "content": [ {
        "contentType": "application/elm+xml",
        "data": ""
      }, {
        "contentType": "text/cql",
        "data": ""
      } ]
    },
    "request": {
      "method": "PUT",
      "url": "Library/library-AdultOutpatientEncounters-FHIR3-1.1.000"
    }
  }, {
    "resource": {
      "resourceType": "Patient",
      "id": "denom-EXM165-FHIR3",
      "meta": {
        "profile": [ "http://hl7.org/fhir/us/core/StructureDefinition/us-core-patient" ]
      },
      "extension": [ {
        "url": "http://hl7.org/fhir/us/core/StructureDefinition/us-core-race",
        "extension": [ {
          "url": "ombCategory",
          "valueCoding": {
            "system": "urn:oid:2.16.840.1.113883.6.238",
            "code": "2106-3",
            "display": "White"
          }
        } ]
      }, {
        "url": "http://hl7.org/fhir/us/core/StructureDefinition/us-core-ethnicity",
        "extension": [ {
          "url": "ombCategory",
          "valueCoding": {
            "system": "urn:oid:2.16.840.1.113883.6.238",
            "code": "2186-5",
            "display": "Not Hispanic or Latino"
          }
        } ]
      } ],
      "identifier": [ {
        "use": "usual",
        "type": {
          "coding": [ {
            "system": "http://terminology.hl7.org/CodeSystem/v2-0203",
            "code": "MR",
            "display": "Medical Record Number"
          } ]
        },
        "system": "http://hospital.smarthealthit.org",
        "value": "999999992"
      } ],
      "name": [ {
        "family": "Jones",
        "given": [ "Rick" ]
      } ],
      "gender": "male",
      "birthDate": "1976-04-26"
    },
    "request": {
      "method": "PUT",
      "url": "Patient/denom-EXM165-FHIR3"
    }
  }, {
    "resource": {
      "resourceType": "Library",
      "id": "library-FHIRHelpers-3.0.0",
      "text": {
        "status": "generated",
        "div": "<div xmlns=\"http://www.w3.org/1999/xhtml\"><table class=\"grid dict\"><tr><th scope=\"row\"><b>Id: </b></th><td style=\"padding-left: 25px; padding-right: 25px;\">library-FHIRHelpers-3.0.0</td></tr><tr><th scope=\"row\"><b>Type: </b></th><td style=\"padding-right: 25px;\"> Logic Library </td></tr><tr><th scope=\"row\"><b>Version: </b></th><td style=\"padding-left: 25px; padding-right: 25px;\">3.0.0</td></tr><tr><th scope=\"row\"><b>Status: </b></th><td style=\"padding-left: 25px; padding-right: 25px;\">active</td></tr><tr style=\"vertical-align: top;\"><th scope=\"row\"><b>Content: </b></th><td style=\"padding-left: 25px; padding-right: 25px;\"><b>type: </b><span>text/cql</span></td></tr><tr><td colspan=\"2\" style=\"padding-left: 25px; padding-right: 25px;\"><pre><code class=\"language-cql\">library FHIRHelpers version '3.0.0'\n\nusing FHIR version '3.0.0'\n\ndefine function ToInterval(period FHIR.Period):\n    if period is null then\n        null\n    else\n        Interval[period.&quot;start&quot;.value, period.&quot;end&quot;.value]\n\ndefine function ToQuantity(quantity FHIR.Quantity):\n    if quantity is null then\n        null\n    else\n        System.Quantity { value: quantity.value.value, unit: quantity.unit.value }\n\ndefine function ToInterval(range FHIR.Range):\n    if range is null then\n        null\n    else\n        Interval[ToQuantity(range.low), ToQuantity(range.high)]\n\ndefine function ToCode(coding FHIR.Coding):\n    if coding is null then\n        null\n    else\n        System.Code {\n          code: coding.code.value,\n          system: coding.system.value,\n          version: coding.version.value,\n          display: coding.display.value\n        }\n\ndefine function ToConcept(concept FHIR.CodeableConcept):\n    if concept is null then\n         null\n    else\n        System.Concept {\n            codes: concept.coding C return ToCode(C),\n            display: concept.text.value\n        }\n\ndefine function ToString(value FHIR.uuid): value.value\ndefine function ToString(value FHIR.TestScriptRequestMethodCode): value.value\ndefine function ToString(value FHIR.ProvenanceEntityRole): value.value\ndefine function ToString(value FHIR.UnitsOfTime): value.value\ndefine function ToString(value FHIR.AddressType): value.value\ndefine function ToString(value FHIR.AllergyIntoleranceCategory): value.value\ndefine function ToString(value FHIR.SpecimenStatus): value.value\ndefine function ToString(value FHIR.RestfulCapabilityMode): value.value\ndefine function ToString(value FHIR.DetectedIssueSeverity): value.value\ndefine function ToString(value FHIR.IssueSeverity): value.value\ndefine function ToString(value FHIR.CareTeamStatus): value.value\ndefine function ToString(value FHIR.DataElementStringency): value.value\ndefine function ToString(value FHIR.VisionEyes): value.value\ndefine function ToString(value FHIR.EncounterStatus): value.value\ndefine function ToString(value FHIR.StructureDefinitionKind): value.value\ndefine function ToString(value FHIR.PublicationStatus): value.value\ndefine function ToString(value FHIR.ConsentDataMeaning): value.value\ndefine function ToString(value FHIR.StructureMapSourceListMode): value.value\ndefine function ToString(value FHIR.RequestStatus): value.value\ndefine function ToString(value FHIR.QuestionnaireResponseStatus): value.value\ndefine function ToString(value FHIR.SearchComparator): value.value\ndefine function ToString(value FHIR.ChargeItemStatus): value.value\ndefine function ToString(value FHIR.ActionParticipantType): value.value\ndefine function ToString(value FHIR.AllergyIntoleranceType): value.value\ndefine function ToString(value FHIR.DocumentRelationshipType): value.value\ndefine function ToString(value FHIR.AllergyIntoleranceClinicalStatus): value.value\ndefine function ToString(value FHIR.CarePlanActivityStatus): value.value\ndefine function ToString(value FHIR.ActionList): value.value\ndefine function ToString(value FHIR.ParticipationStatus): value.value\ndefine function ToString(value FHIR.TestReportResult): value.value\ndefine function ToString(value FHIR.ConceptMapGroupUnmappedMode): value.value\ndefine function ToDateTime(value FHIR.instant): value.value\ndefine function ToDateTime(value FHIR.dateTime): value.value\ndefine function ToDate(value FHIR.date): value.value\ndefine function ToString(value FHIR.DocumentMode): value.value\ndefine function ToString(value FHIR.AssertionOperatorType): value.value\ndefine function ToString(value FHIR.DaysOfWeek): value.value\ndefine function ToString(value FHIR.IssueType): value.value\ndefine function ToString(value FHIR.ContentType): value.value\ndefine function ToString(value FHIR.StructureMapContextType): value.value\ndefine function ToString(value FHIR.FamilyHistoryStatus): value.value\ndefine function ToInteger(value FHIR.positiveInt): value.value\ndefine function ToString(value FHIR.ClinicalImpressionStatus): value.value\ndefine function ToString(value FHIR.AssertionResponseTypes): value.value\ndefine function ToString(value FHIR.RequestIntent): value.value\ndefine function ToString(value FHIR.NarrativeStatus): value.value\ndefine function ToString(value FHIR.MeasmntPrinciple): value.value\ndefine function ToString(value FHIR.ConsentExceptType): value.value\ndefine function ToString(value FHIR.string): value.value\ndefine function ToString(value FHIR.ActionRequiredBehavior): value.value\ndefine function ToString(value FHIR.EndpointStatus): value.value\ndefine function ToString(value FHIR.GuidePageKind): value.value\ndefine function ToString(value FHIR.GuideDependencyType): value.value\ndefine function ToString(value FHIR.ResourceVersionPolicy): value.value\ndefine function ToString(value FHIR.MedicationRequestStatus): value.value\ndefine function ToString(value FHIR.MedicationAdministrationStatus): value.value\ndefine function ToString(value FHIR.ActionCardinalityBehavior): value.value\ndefine function ToString(value FHIR.MedicationRequestIntent): value.value\ndefine function ToString(value FHIR.NamingSystemIdentifierType): value.value\ndefine function ToString(value FHIR.ImmunizationStatusCodes): value.value\ndefine function ToString(value FHIR.AccountStatus): value.value\ndefine function ToString(value FHIR.MedicationDispenseStatus): value.value\ndefine function ToString(value FHIR.ConfidentialityClassification): value.value\ndefine function ToString(value FHIR.IdentifierUse): value.value\ndefine function ToString(value FHIR.DigitalMediaType): value.value\ndefine function ToString(value FHIR.StructureMapTargetListMode): value.value\ndefine function ToString(value FHIR.TestReportParticipantType): value.value\ndefine function ToString(value FHIR.BindingStrength): value.value\ndefine function ToString(value FHIR.RequestPriority): value.value\ndefine function ToString(value FHIR.ParticipantRequired): value.value\ndefine function ToString(value FHIR.DiscriminatorType): value.value\ndefine function ToString(value FHIR.XPathUsageType): value.value\ndefine function ToString(value FHIR.StructureMapInputMode): value.value\ndefine function ToString(value FHIR.InstanceAvailability): value.value\ndefine function ToString(value FHIR.id): value.value\ndefine function ToString(value FHIR.LinkageType): value.value\ndefine function ToString(value FHIR.ReferenceHandlingPolicy): value.value\ndefine function ToString(value FHIR.MedicationStatus): value.value\ndefine function ToString(value FHIR.FilterOperator): value.value\ndefine function ToString(value FHIR.NamingSystemType): value.value\ndefine function ToString(value FHIR.ResearchStudyStatus): value.value\ndefine function ToString(value FHIR.ExtensionContext): value.value\ndefine function ToString(value FHIR.FHIRDefinedType): value.value\ndefine function ToString(value FHIR.AuditEventOutcome): value.value\ndefine function ToString(value FHIR.ActionRelationshipType): value.value\ndefine function ToString(value FHIR.ConstraintSeverity): value.value\ndefine function ToString(value FHIR.EventCapabilityMode): value.value\ndefine function ToString(value FHIR.ContractResourceStatusCodes): value.value\ndefine function ToString(value FHIR.ResearchSubjectStatus): value.value\ndefine function ToString(value FHIR.UDIEntryType): value.value\ndefine function ToString(value FHIR.DeviceMetricCategory): value.value\ndefine function ToString(value FHIR.TestReportActionResult): value.value\ndefine function ToString(value FHIR.StructureMapTransform): value.value\ndefine function ToString(value FHIR.ResponseType): value.value\ndefine function ToDecimal(value FHIR.decimal): value.value\ndefine function ToString(value FHIR.AggregationMode): value.value\ndefine function ToString(value FHIR.CapabilityStatementKind): value.value\ndefine function ToString(value FHIR.AllergyIntoleranceVerificationStatus): value.value\ndefine function ToString(value FHIR.EventTiming): value.value\ndefine function ToString(value FHIR.GoalStatus): value.value\ndefine function ToString(value FHIR.SearchParamType): value.value\ndefine function ToString(value FHIR.SystemRestfulInteraction): value.value\ndefine function ToString(value FHIR.ActionGroupingBehavior): value.value\ndefine function ToString(value FHIR.StructureMapModelMode): value.value\ndefine function ToString(value FHIR.TaskStatus): value.value\ndefine function ToString(value FHIR.AdverseEventCausality): value.value\ndefine function ToString(value FHIR.SubscriptionChannelType): value.value\ndefine function ToString(value FHIR.GraphCompartmentRule): value.value\ndefine function ToString(value FHIR.AssertionDirectionType): value.value\ndefine function ToString(value FHIR.CarePlanIntent): value.value\ndefine function ToString(value FHIR.SlicingRules): value.value\ndefine function ToString(value FHIR.ExplanationOfBenefitStatus): value.value\ndefine function ToString(value FHIR.ConsentState): value.value\ndefine function ToString(value FHIR.AdverseEventCategory): value.value\ndefine function ToString(value FHIR.LinkType): value.value\ndefine function ToString(value FHIR.AllergyIntoleranceCriticality): value.value\ndefine function ToString(value FHIR.MedicationRequestPriority): value.value\ndefine function ToString(value FHIR.ConceptMapEquivalence): value.value\ndefine function ToString(value FHIR.FHIRAllTypes): value.value\ndefine function ToString(value FHIR.PropertyRepresentation): value.value\ndefine function ToString(value FHIR.AuditEventAction): value.value\ndefine function ToString(value FHIR.TriggerType): value.value\ndefine function ToString(value FHIR.SearchModifierCode): value.value\ndefine function ToString(value FHIR.CompositionStatus): value.value\ndefine function ToString(value FHIR.AppointmentStatus): value.value\ndefine function ToString(value FHIR.MessageSignificanceCategory): value.value\ndefine function ToString(value FHIR.EventStatus): value.value\ndefine function ToString(value FHIR.OperationParameterUse): value.value\ndefine function ToString(value FHIR.ListMode): value.value\ndefine function ToString(value FHIR.ActionConditionKind): value.value\ndefine function ToString(value FHIR.ObservationStatus): value.value\ndefine function ToString(value FHIR.qualityType): value.value\ndefine function ToString(value FHIR.AdministrativeGender): value.value\ndefine function ToString(value FHIR.ResourceType): value.value\ndefine function ToString(value FHIR.QuestionnaireItemType): value.value\ndefine function ToBoolean(value FHIR.boolean): value.value\ndefine function ToString(value FHIR.StructureMapGroupTypeMode): value.value\ndefine function ToString(value FHIR.DeviceMetricCalibrationType): value.value\ndefine function ToString(value FHIR.code): value.value\ndefine function ToString(value FHIR.SupplyRequestStatus): value.value\ndefine function ToString(value FHIR.ActionSelectionBehavior): value.value\ndefine function ToString(value FHIR.EncounterLocationStatus): value.value\ndefine function ToString(value FHIR.SupplyDeliveryStatus): value.value\ndefine function ToString(value FHIR.DiagnosticReportStatus): value.value\ndefine function ToString(value FHIR.FlagStatus): value.value\ndefine function ToString(value FHIR.CarePlanStatus): value.value\ndefine function ToString(value FHIR.ConditionClinicalStatusCodes): value.value\ndefine function ToString(value FHIR.ListStatus): value.value\ndefine function Tobase64Binary(value FHIR.base64Binary): value.value\ndefine function ToString(value FHIR.DeviceUseStatementStatus): value.value\ndefine function ToString(value FHIR.AuditEventAgentNetworkType): value.value\ndefine function ToString(value FHIR.AddressUse): value.value\ndefine function ToString(value FHIR.ConditionalDeleteStatus): value.value\ndefine function ToString(value FHIR.ContactPointUse): value.value\ndefine function ToString(value FHIR.DeviceMetricOperationalStatus): value.value\ndefine function ToString(value FHIR.NutritionOrderStatus): value.value\ndefine function ToString(value FHIR.uri): value.value\ndefine function ToString(value FHIR.ContributorType): value.value\ndefine function ToString(value FHIR.ReferenceVersionRules): value.value\ndefine function ToString(value FHIR.Use): value.value\ndefine function ToString(value FHIR.IdentityAssuranceLevel): value.value\ndefine function ToString(value FHIR.MeasureReportStatus): value.value\ndefine function ToString(value FHIR.DeviceMetricColor): value.value\ndefine function ToString(value FHIR.SearchEntryMode): value.value\ndefine function ToTime(value FHIR.time): value.value\ndefine function ToString(value FHIR.ConditionalReadStatus): value.value\ndefine function ToString(value FHIR.ConditionVerificationStatus): value.value\ndefine function ToString(value FHIR.AllergyIntoleranceSeverity): value.value\ndefine function ToString(value FHIR.FinancialResourceStatusCodes): value.value\ndefine function ToString(value FHIR.OperationKind): value.value\ndefine function ToString(value FHIR.ObservationRelationshipType): value.value\ndefine function ToInteger(value FHIR.unsignedInt): value.value\ndefine function ToString(value FHIR.NameUse): value.value\ndefine function ToString(value FHIR.SubscriptionStatus): value.value\ndefine function ToString(value FHIR.DocumentReferenceStatus): value.value\ndefine function ToString(value FHIR.LocationMode): value.value\ndefine function ToInteger(value FHIR.integer): value.value\ndefine function ToString(value FHIR.repositoryType): value.value\ndefine function ToString(value FHIR.LocationStatus): value.value\ndefine function ToString(value FHIR.FHIRSubstanceStatus): value.value\ndefine function ToString(value FHIR.UnknownContentCode): value.value\ndefine function ToString(value FHIR.NoteType): value.value\ndefine function ToString(value FHIR.TestReportStatus): value.value\ndefine function ToString(value FHIR.HTTPVerb): value.value\ndefine function ToString(value FHIR.CodeSystemContentMode): value.value\ndefine function ToString(value FHIR.EpisodeOfCareStatus): value.value\ndefine function ToString(value FHIR.RemittanceOutcome): value.value\ndefine function ToString(value FHIR.FHIRDeviceStatus): value.value\ndefine function ToString(value FHIR.ContactPointSystem): value.value\ndefine function ToString(value FHIR.SlotStatus): value.value\ndefine function ToString(value FHIR.PropertyType): value.value\ndefine function ToString(value FHIR.markdown): value.value\ndefine function ToString(value FHIR.TypeDerivationRule): value.value\ndefine function ToString(value FHIR.MedicationStatementStatus): value.value\ndefine function ToString(value FHIR.GuidanceResponseStatus): value.value\ndefine function ToString(value FHIR.QuantityComparator): value.value\ndefine function ToString(value FHIR.RelatedArtifactType): value.value\ndefine function ToString(value FHIR.oid): value.value\ndefine function ToString(value FHIR.MeasureReportType): value.value\ndefine function ToString(value FHIR.ActionPrecheckBehavior): value.value\ndefine function ToString(value FHIR.SampledDataDataType): value.value\ndefine function ToString(value FHIR.MedicationStatementTaken): value.value\ndefine function ToString(value FHIR.CompartmentType): value.value\ndefine function ToString(value FHIR.CompositionAttestationMode): value.value\ndefine function ToString(value FHIR.DeviceMetricCalibrationState): value.value\ndefine function ToString(value FHIR.GroupType): value.value\ndefine function ToString(value FHIR.TypeRestfulInteraction): value.value\ndefine function ToString(value FHIR.CodeSystemHierarchyMeaning): value.value\ndefine function ToString(value FHIR.VisionBase): value.value\ndefine function ToString(value FHIR.BundleType): value.value\ndefine function ToString(value FHIR.SystemVersionProcessingMode): value.value\n</code></pre>\n                    \n                    \n                </td>\n            </tr>\n        \n    </table>\n</div>"
      },
      "version": "3.0.0",
      "name": "FHIRHelpers",
      "status": "active",
      "experimental": true,
      "type": {
        "coding": [ {
          "system": "http://hl7.org/fhir/codesystem-library-type.html",
          "code": "logic-library"
        } ]
      },
      "content": [ {
        "contentType": "application/elm+xml",
        "data": ""
      }, {
        "contentType": "text/cql",
        "data": ""
      } ]
    },
    "request": {
      "method": "PUT",
      "url": "Library/library-FHIRHelpers-3.0.0"
    }
  }, {
    "resource": {
      "resourceType": "Library",
      "id": "library-MATGlobalCommonFunctions-FHIR3-2.0.000",
      "text": {
        "status": "generated",
        "div": "<div xmlns=\"http://www.w3.org/1999/xhtml\"><table class=\"grid dict\"><tr><th scope=\"row\"><b>Id: </b></th><td style=\"padding-left: 25px; padding-right: 25px;\">library-MATGlobalCommonFunctions-FHIR3-2.0.000</td></tr><tr><th scope=\"row\"><b>Type: </b></th><td style=\"padding-right: 25px;\"> Logic Library </td></tr><tr><th scope=\"row\"><b>Version: </b></th><td style=\"padding-left: 25px; padding-right: 25px;\">2.0.000</td></tr><tr><th scope=\"row\"><b>Status: </b></th><td style=\"padding-left: 25px; padding-right: 25px;\">active</td></tr><tr style=\"vertical-align: top;\"><th rowspan=\"1\" scope=\"row\"><b>Related: </b></th><td style=\"padding-left: 25px; padding-right: 25px;\"><p style=\"margin-bottom: 5px;\"><b>type: </b><span>depends-on</span></p><p style=\"margin-bottom: 5px;\"><b>Resource: </b><br/><span><span style=\"padding-left: 25px;\"><b>reference: </b><span>Library/library-FHIRHelpers-3.0.0</span></span></span></p></td></tr><tr style=\"vertical-align: top;\"><th rowspan=\"7\" scope=\"row\"><b>Data Requirements: </b></th><td style=\"padding-left: 25px; padding-right: 25px;\"><div><p style=\"margin-bottom: 5px;\"><b>type: </b><span>Encounter</span></p><p style=\"margin-bottom: 5px;\"><b>code filter:</b><br/><span style=\"padding-left: 25px;\"><b>path: </b><span>type</span></span><br/><span style=\"padding-left: 25px;\"><b>valueset: </b><span>http://cts.nlm.nih.gov/fhir/ValueSet/2.16.840.1.113883.3.666.5.307</span></span></p></div></td></tr><tr style=\"vertical-align: top;\"><td style=\"padding-left: 25px; padding-right: 25px;\"><div><p style=\"margin-bottom: 5px;\"><b>type: </b><span>Encounter</span></p><p style=\"margin-bottom: 5px;\"><b>code filter:</b><br/><span style=\"padding-left: 25px;\"><b>path: </b><span>type</span></span><br/><span style=\"padding-left: 25px;\"><b>valueset: </b><span>http://cts.nlm.nih.gov/fhir/ValueSet/2.16.840.1.113883.3.117.1.7.1.292</span></span></p></div></td></tr><tr style=\"vertical-align: top;\"><td style=\"padding-left: 25px; padding-right: 25px;\"><div><p style=\"margin-bottom: 5px;\"><b>type: </b><span>Condition</span></p></div></td></tr><tr style=\"vertical-align: top;\"><td style=\"padding-left: 25px; padding-right: 25px;\"><div><p style=\"margin-bottom: 5px;\"><b>type: </b><span>Condition</span></p></div></td></tr><tr style=\"vertical-align: top;\"><td style=\"padding-left: 25px; padding-right: 25px;\"><div><p style=\"margin-bottom: 5px;\"><b>type: </b><span>Location</span></p></div></td></tr><tr style=\"vertical-align: top;\"><td style=\"padding-left: 25px; padding-right: 25px;\"><div><p style=\"margin-bottom: 5px;\"><b>type: </b><span>Provenance</span></p><p style=\"margin-bottom: 5px;\"><b>code filter:</b><br/><span style=\"padding-left: 25px;\"><b>path: </b><span>target</span></span></p></div></td></tr><tr style=\"vertical-align: top;\"><td style=\"padding-left: 25px; padding-right: 25px;\"><div><p style=\"margin-bottom: 5px;\"><b>type: </b><span>Medication</span></p><p style=\"margin-bottom: 5px;\"><b>code filter:</b><br/><span style=\"padding-left: 25px;\"><b>path: </b><span>id</span></span></p></div></td></tr><tr style=\"vertical-align: top;\"><th scope=\"row\"><b>Content: </b></th><td style=\"padding-left: 25px; padding-right: 25px;\"><b>type: </b><span>text/cql</span></td></tr><tr><td colspan=\"2\" style=\"padding-left: 25px; padding-right: 25px;\"><pre><code class=\"language-cql\">library MATGlobalCommonFunctions_FHIR3 version '2.0.000'\n\n/*\nThis example is a work in progress and should not be considered a final specification\nor recommendation for guidance. This example will help guide and direct the process\nof finding conventions and usage patterns that meet the needs of the various stakeholders\nin the measure development community.\n*/\n\nusing FHIR version '3.0.0'\n\ninclude FHIRHelpers version '3.0.0' called FHIRHelpers\n\ncodesystem &quot;LOINC&quot;: 'http://loinc.org'\ncodesystem &quot;SNOMEDCT&quot;: 'http://snomed.info/sct/731000124108'\ncodesystem &quot;RoleCode&quot;: 'http://hl7.org/fhir/v3/RoleCode'\ncodesystem &quot;Diagnosis Role&quot;: 'http://hl7.org/fhir/diagnosis-role'\n\nvalueset &quot;Encounter Inpatient&quot;: 'http://cts.nlm.nih.gov/fhir/ValueSet/2.16.840.1.113883.3.666.5.307'\nvalueset &quot;Emergency Department Visit&quot;: 'http://cts.nlm.nih.gov/fhir/ValueSet/2.16.840.1.113883.3.117.1.7.1.292'\n\ncode &quot;Birthdate&quot;: '21112-8' from &quot;LOINC&quot; display 'Birth date'\ncode &quot;Dead&quot;: '419099009' from &quot;SNOMEDCT&quot; display 'Dead'\ncode &quot;ER&quot;: 'ER' from &quot;RoleCode&quot; display 'Emergency room'\ncode &quot;ICU&quot;: 'ICU' from &quot;RoleCode&quot; display 'Intensive care unit'\ncode &quot;Billing&quot;: 'billing' from &quot;Diagnosis Role&quot; display 'Billing'\n\nparameter &quot;Measurement Period&quot; Interval&lt;DateTime&gt;\n\ncontext Patient\n\ndefine &quot;Inpatient Encounter&quot;:\n\t[Encounter: &quot;Encounter Inpatient&quot;] EncounterInpatient\n\t\twhere EncounterInpatient.status = 'finished'\n\t\t    and &quot;LengthInDays&quot;(EncounterInpatient.period) &lt;= 120\n\t\t\tand EncounterInpatient.period ends during &quot;Measurement Period&quot;\n\ndefine function &quot;ToDate&quot;(Value DateTime):\n\tDateTime(year from Value, month from Value, day from Value, 0, 0, 0, 0, timezone from Value)\n\ndefine function &quot;CalendarAgeInDaysAt&quot;(BirthDateTime DateTime, AsOf DateTime):\n\tdays between ToDate(BirthDateTime)and ToDate(AsOf)\n\ndefine function &quot;CalendarAgeInDays&quot;(BirthDateTime DateTime):\n\tCalendarAgeInDaysAt(BirthDateTime, Today())\n\ndefine function &quot;CalendarAgeInMonthsAt&quot;(BirthDateTime DateTime, AsOf DateTime):\n\tmonths between ToDate(BirthDateTime)and ToDate(AsOf)\n\ndefine function &quot;CalendarAgeInMonths&quot;(BirthDateTime DateTime):\n\tCalendarAgeInMonthsAt(BirthDateTime, Today())\n\ndefine function &quot;CalendarAgeInYearsAt&quot;(BirthDateTime DateTime, AsOf DateTime):\n\tyears between ToDate(BirthDateTime)and ToDate(AsOf)\n\ndefine function &quot;CalendarAgeInYears&quot;(BirthDateTime DateTime):\n\tCalendarAgeInYearsAt(BirthDateTime, Today())\n\ndefine function &quot;LengthInDays&quot;(Value Interval&lt;DateTime&gt;):\n\tdifference in days between start of Value and end of Value\n\ndefine function &quot;ED Visit&quot;(TheEncounter FHIR.Encounter):\n    singleton from (\n        [Encounter: &quot;Emergency Department Visit&quot;] EDVisit\n            where EDVisit.status = 'finished'\n                and EDVisit.period ends 1 hour or less on or before start of FHIRHelpers.ToInterval(TheEncounter.period)\n    )\n\ndefine function &quot;Hospitalization&quot;(TheEncounter FHIR.Encounter):\n\t( &quot;ED Visit&quot;(TheEncounter) ) X\n    return\n        if X is null then TheEncounter.period\n        else Interval[start of FHIRHelpers.ToInterval(X.period), end of FHIRHelpers.ToInterval(TheEncounter.period)]\n\ndefine function &quot;Hospitalization Locations&quot;(TheEncounter FHIR.Encounter):\n\t( &quot;ED Visit&quot;(TheEncounter) ) EDEncounter\n    return\n        if EDEncounter is null then TheEncounter.location\n        else flatten { EDEncounter.location, TheEncounter.location }\n\ndefine function &quot;Hospitalization Length of Stay&quot;(TheEncounter FHIR.Encounter):\n\tLengthInDays(&quot;Hospitalization&quot;(TheEncounter))\n\ndefine function &quot;Hospital Admission Time&quot;(TheEncounter FHIR.Encounter):\n\tstart of &quot;Hospitalization&quot;(TheEncounter)\n\ndefine function &quot;Hospital Discharge Time&quot;(TheEncounter FHIR.Encounter):\n\tend of FHIRHelpers.ToInterval(TheEncounter.period)\n\ndefine function &quot;Hospital Arrival Time&quot;(TheEncounter FHIR.Encounter):\n\tstart of FHIRHelpers.ToInterval(First(\n\t    ( &quot;Hospitalization Locations&quot;(TheEncounter) ) HospitalLocation\n\t\t\tsort by start of FHIRHelpers.ToInterval(period)\n\t).period)\n\n// TODO - fix these (must fetch Location resources and compare id to reference)\n/*define function &quot;Hospital Departure Time&quot;(TheEncounter FHIR.Encounter):\n\tend of FHIRHelpers.ToInterval(Last(\n\t    ( &quot;Hospitalization Locations&quot;(TheEncounter) ) HospitalLocation\n\t\t\tsort by start of FHIRHelpers.ToInterval(period)\n\t).period)\n\ndefine function &quot;Emergency Department Arrival Time&quot;(TheEncounter FHIR.Encounter):\n\tstart of FHIRHelpers.ToInterval((\n\t    singleton from (\n\t        ( &quot;Hospitalization Locations&quot;(TheEncounter) ) HospitalLocation\n\t\t\t\twhere HospitalLocation.type ~ &quot;ER&quot;\n\t\t)\n\t).period)\n\ndefine function &quot;First Inpatient Intensive Care Unit&quot;(TheEncounter FHIR.Encounter):\n\tFirst(\n\t    ( TheEncounter.location ) HospitalLocation\n\t\t\twhere HospitalLocation.type ~ &quot;ICU&quot;\n\t\t\t\tand HospitalLocation.period during TheEncounter.period\n\t\t\tsort by start of FHIRHelpers.ToInterval(period)\n\t)*/\n\n/*\n*\n*    CQFMeasures Common Logic\n*\n*/\n\ndefine function &quot;Normalize Onset&quot;(onset Choice&lt;FHIR.dateTime, FHIR.Age, FHIR.Period, FHIR.Range, FHIR.string&gt;):\n  if onset is FHIR.dateTime then\n\t  Interval[FHIRHelpers.ToDateTime(onset as FHIR.dateTime), FHIRHelpers.ToDateTime(onset as FHIR.dateTime)]\n\telse if onset is FHIR.Period then\n\t  FHIRHelpers.ToInterval(onset as FHIR.Period)\n\telse if onset is FHIR.Age then\n\t  Interval[FHIRHelpers.ToDate(Patient.birthDate) + FHIRHelpers.ToQuantity(onset as FHIR.Age),\n\t\t  FHIRHelpers.ToDate(Patient.birthDate) + FHIRHelpers.ToQuantity(onset as FHIR.Age) + 1 year)\n\telse null\n\ndefine function &quot;Normalize Abatement&quot;(condition Condition):\n\tif condition.abatement is FHIR.dateTime then\n\t  Interval[FHIRHelpers.ToDateTime(condition.abatement as FHIR.dateTime), FHIRHelpers.ToDateTime(condition.abatement as FHIR.dateTime)]\n\telse if condition.abatement is FHIR.Period then\n\t  FHIRHelpers.ToInterval(condition.abatement as FHIR.Period)\n\telse if condition.abatement is FHIR.Age then\n\t\tInterval[FHIRHelpers.ToDate(Patient.birthDate) + FHIRHelpers.ToQuantity(condition.abatement as FHIR.Age),\n\t\t\tFHIRHelpers.ToDate(Patient.birthDate) + FHIRHelpers.ToQuantity(condition.abatement as FHIR.Age) + 1 year)\n\telse if condition.abatement is FHIR.boolean then\n\t  Interval[end of &quot;Normalize Onset&quot;(condition.onset), condition.assertedDate)\n\telse null\n\ndefine function &quot;GetPrevalencePeriod&quot;(condition Condition):\n  Interval[start of &quot;Normalize Onset&quot;(condition.onset), end of &quot;Normalize Abatement&quot;(condition))\n\ndefine function &quot;Normalize Interval&quot;(choice Choice&lt;FHIR.dateTime, FHIR.Period&gt;):\n  if choice is FHIR.dateTime then\n\t  Interval[FHIRHelpers.ToDateTime(choice as FHIR.dateTime), FHIRHelpers.ToDateTime(choice as FHIR.dateTime)]\n\telse\n\t  FHIRHelpers.ToInterval(choice as FHIR.Period)\n\ndefine function &quot;GetId&quot;(uri String):\n\tLast(Split(uri, '/'))\n\ndefine function &quot;EncounterDiagnosis&quot;(Encounter Encounter):\n  Encounter.diagnosis D\n    return singleton from ([Condition] C where C.id = &quot;GetId&quot;(D.condition.reference))\n\n// Returns the condition that is specified as the principal diagnosis for the encounter\ndefine function &quot;PrincipalDiagnosis&quot;(Encounter Encounter):\n\t(singleton from (Encounter.diagnosis D where D.role ~ ToConcept(&quot;Billing&quot;) and D.rank = 1)) PD\n\t\treturn singleton from ([Condition] C where C.id = &quot;GetId&quot;(PD.condition.reference))\n\n// Returns the location for the given location reference\ndefine function GetLocation(reference Reference):\n  singleton from (\n    [Location] Location where Location.id.value = GetId(reference.reference)\n  )\n\n/*\nNOTE: Extensions are not the preferred approach, but are used as a way to access\ncontent that is defined by extensions but not yet surfaced in the\nCQL model info.\n*/\ndefine function &quot;GetExtensions&quot;(domainResource DomainResource, url String):\n  domainResource.extension E\n\t  where E.url = ('http://hl7.org/fhir/us/qicore/StructureDefinition/' + url)\n\t\treturn E\n\ndefine function &quot;GetExtension&quot;(domainResource DomainResource, url String):\n  singleton from &quot;GetExtensions&quot;(domainResource, url)\n\n/*\nNOTE: Extensions are not the preferred approach, but are used as a way to access\ncontent that is defined by extensions but not yet surfaced in the\nCQL model info.\n*/\ndefine function &quot;GetBaseExtensions&quot;(domainResource DomainResource, url String):\n  domainResource.extension E\n\t  where E.url = ('http://hl7.org/fhir/StructureDefinition/' + url)\n\t\treturn E\n\ndefine function &quot;GetBaseExtension&quot;(domainResource DomainResource, url String):\n  singleton from &quot;GetBaseExtensions&quot;(domainResource, url)\n\n/*\nNOTE: Provenance is not the preferred approach, this is provided only as an illustration\nfor what using Provenance could look like, and is not a tested pattern\n*/\ndefine function &quot;GetProvenance&quot;(resource Resource):\n  singleton from ([Provenance: target in resource.id])\n\ndefine function &quot;GetMedicationCode&quot;(request MedicationRequest):\n  if request.medication is CodeableConcept then\n\t  request.medication as CodeableConcept\n\telse\n\t  (singleton from ([Medication: id in GetId((request.medication as Reference).reference)])).code\n</code></pre>\n                    \n                    \n                </td>\n            </tr>\n        \n    </table>\n</div>"
      },
      "version": "2.0.000",
      "name": "MATGlobalCommonFunctions_FHIR3",
      "status": "active",
      "experimental": true,
      "type": {
        "coding": [ {
          "system": "http://hl7.org/fhir/codesystem-library-type.html",
          "code": "logic-library"
        } ]
      },
      "relatedArtifact": [ {
        "type": "depends-on",
        "resource": {
          "reference": "Library/library-FHIRHelpers-3.0.0"
        }
      } ],
      "dataRequirement": [ {
        "type": "Encounter",
        "codeFilter": [ {
          "path": "type",
          "valueSetString": "http://cts.nlm.nih.gov/fhir/ValueSet/2.16.840.1.113883.3.666.5.307"
        } ]
      }, {
        "type": "Encounter",
        "codeFilter": [ {
          "path": "type",
          "valueSetString": "http://cts.nlm.nih.gov/fhir/ValueSet/2.16.840.1.113883.3.117.1.7.1.292"
        } ]
      }, {
        "type": "Condition"
      }, {
        "type": "Condition"
      }, {
        "type": "Location"
      }, {
        "type": "Provenance",
        "codeFilter": [ {
          "path": "target"
        } ]
      }, {
        "type": "Medication",
        "codeFilter": [ {
          "path": "id"
        } ]
      } ],
      "content": [ {
        "contentType": "application/elm+xml",
        "data": ""
      }, {
        "contentType": "text/cql",
        "data": ""
      } ]
    },
    "request": {
      "method": "PUT",
      "url": "Library/library-MATGlobalCommonFunctions-FHIR3-2.0.000"
    }
  }, {
    "resource": {
      "resourceType": "MeasureReport",
      "id": "measurereport-numer-EXM165-FHIR3",
      "contained": [ {
        "resourceType": "Bundle",
        "id": "8fd27480-2261-4f60-8de9-09ac6ac591ce",
        "type": "collection",
        "entry": [ {
          "fullUrl": "Observation/numer-EXM165-FHIR3-5",
          "resource": {
            "resourceType": "Observation",
            "id": "numer-EXM165-FHIR3-5",
            "meta": { },
            "status": "final",
            "code": {
              "coding": [ {
                "system": "http://loinc.org",
                "code": "85354-9",
                "display": "blood pressure"
              } ]
            },
            "subject": {
              "reference": "Patient/numer-EXM165-FHIR3"
            },
            "effectiveDateTime": "2019-11-01T05:00:00",
            "component": [ {
              "code": {
                "coding": [ {
                  "system": "http://loinc.org",
                  "code": "8462-4",
                  "display": "Diastolic blood pressure"
                } ]
              },
              "valueQuantity": {
                "value": 89,
                "unit": "mm[Hg]"
              }
            } ]
          }
        }, {
          "fullUrl": "Condition/numer-EXM165-FHIR3-2",
          "resource": {
            "resourceType": "Condition",
            "id": "numer-EXM165-FHIR3-2",
            "meta": {
              "profile": [ "http://hl7.org/fhir/us/core/StructureDefinition/us-core-condition" ]
            },
            "verificationStatus": "confirmed",
            "category": [ {
              "coding": [ {
                "system": "http://terminology.hl7.org/CodeSystem/condition-category",
                "code": "encounter-diagnosis",
                "display": "Encounter Diagnosis"
              } ]
            } ],
            "code": {
              "coding": [ {
                "system": "http://snomed.info/sct",
                "code": "65518004",
                "display": "Labile diastolic hypertension (disorder)"
              } ]
            },
            "subject": {
              "reference": "Patient/numer-EXM165-FHIR3"
            },
            "assertedDate": "2019-01-12T13:51:21-07:00"
          }
        }, {
          "fullUrl": "Encounter/numer-EXM165-FHIR3-1",
          "resource": {
            "resourceType": "Encounter",
            "id": "numer-EXM165-FHIR3-1",
            "meta": {
              "profile": [ "http://hl7.org/fhir/us/core/StructureDefinition/us-core-encounter" ]
            },
            "status": "finished",
            "class": {
              "system": "http://terminology.hl7.org/CodeSystem/v3-ActCode",
              "code": "IMP",
              "display": "inpatient encounter"
            },
            "type": [ {
              "coding": [ {
                "system": "http://www.ama-assn.org/go/cpt",
                "code": "99202"
              } ]
            } ],
            "subject": {
              "reference": "Patient/numer-EXM165-FHIR3"
            },
            "period": {
              "start": "2019-05-01T12:51:21-06:00",
              "end": "2019-05-01T17:51:21-06:00"
            }
          }
        }, {
          "fullUrl": "d438b281-7056-41a7-85f0-3337d9ad18ad",
          "resource": {
            "resourceType": "List",
            "id": "d438b281-7056-41a7-85f0-3337d9ad18ad",
            "title": "initial-population",
            "entry": [ {
              "item": {
                "reference": "numer-EXM165-FHIR3-2"
              }
            }, {
              "item": {
                "reference": "numer-EXM165-FHIR3-1"
              }
            }, {
              "item": {
                "reference": "numer-EXM165-FHIR3"
              }
            } ]
          }
        }, {
          "fullUrl": "bfaffe2e-2eba-4a5b-91ab-339b5d0c4a98",
          "resource": {
            "resourceType": "List",
            "id": "bfaffe2e-2eba-4a5b-91ab-339b5d0c4a98",
            "title": "numerator",
            "entry": [ {
              "item": {
                "reference": "numer-EXM165-FHIR3-5"
              }
            }, {
              "item": {
                "reference": "numer-EXM165-FHIR3-4"
              }
            } ]
          }
        }, {
          "fullUrl": "Patient/numer-EXM165-FHIR3",
          "resource": {
            "resourceType": "Patient",
            "id": "numer-EXM165-FHIR3",
            "meta": {
              "profile": [ "http://hl7.org/fhir/us/core/StructureDefinition/us-core-patient" ]
            },
            "extension": [ {
              "url": "http://hl7.org/fhir/us/core/StructureDefinition/us-core-race",
              "extension": [ {
                "url": "ombCategory",
                "valueCoding": {
                  "system": "urn:oid:2.16.840.1.113883.6.238",
                  "code": "2054-5",
                  "display": "Black or African American"
                }
              } ]
            }, {
              "url": "http://hl7.org/fhir/us/core/StructureDefinition/us-core-ethnicity",
              "extension": [ {
                "url": "ombCategory",
                "valueCoding": {
                  "system": "urn:oid:2.16.840.1.113883.6.238",
                  "code": "2186-5",
                  "display": "Not Hispanic or Latino"
                }
              } ]
            } ],
            "identifier": [ {
              "use": "usual",
              "type": {
                "coding": [ {
                  "system": "http://terminology.hl7.org/CodeSystem/v2-0203",
                  "code": "MR",
                  "display": "Medical Record Number"
                } ]
              },
              "system": "http://hospital.smarthealthit.org",
              "value": "999999993"
            } ],
            "name": [ {
              "family": "Doe",
              "given": [ "Jill" ]
            } ],
            "gender": "female",
            "birthDate": "1975-08-25"
          }
        }, {
          "fullUrl": "Observation/numer-EXM165-FHIR3-4",
          "resource": {
            "resourceType": "Observation",
            "id": "numer-EXM165-FHIR3-4",
            "meta": { },
            "status": "final",
            "code": {
              "coding": [ {
                "system": "http://loinc.org",
                "code": "85354-9",
                "display": "blood pressure"
              } ]
            },
            "subject": {
              "reference": "Patient/numer-EXM165-FHIR3"
            },
            "effectiveDateTime": "2019-11-01T00:00:00",
            "component": [ {
              "code": {
                "coding": [ {
                  "system": "http://loinc.org",
                  "code": "8480-6",
                  "display": "Systolic blood pressure"
                } ]
              },
              "valueQuantity": {
                "value": 139,
                "unit": "mm[Hg]"
              }
            } ]
          }
        } ]
      } ],
      "status": "complete",
      "type": "individual",
      "measure": {
        "reference": "Measure/measure-EXM165-FHIR3-8.5.000"
      },
      "patient": {
        "reference": "Patient/numer-EXM165-FHIR3"
      },
      "period": {
        "start": "2019-01-01T00:00:00-07:00",
        "end": "2019-12-31T00:00:00-07:00"
      },
      "group": [ {
        "identifier": {
          "value": "group-1"
        },
        "population": [ {
          "identifier": {
            "value": "initial-population-identifier"
          },
          "code": {
            "coding": [ {
              "system": "http://terminology.hl7.org/CodeSystem/measure-population",
              "code": "initial-population",
              "display": "Initial Population"
            } ]
          },
          "count": 1
        }, {
          "identifier": {
            "value": "numerator-identifier"
          },
          "code": {
            "coding": [ {
              "system": "http://terminology.hl7.org/CodeSystem/measure-population",
              "code": "numerator",
              "display": "Numerator"
            } ]
          },
          "count": 1
        }, {
          "identifier": {
            "value": "denominator-identifier"
          },
          "code": {
            "coding": [ {
              "system": "http://terminology.hl7.org/CodeSystem/measure-population",
              "code": "denominator",
              "display": "Denominator"
            } ]
          },
          "count": 1
        }, {
          "identifier": {
            "value": "denominator-exclusions-identifier"
          },
          "code": {
            "coding": [ {
              "system": "http://terminology.hl7.org/CodeSystem/measure-population",
              "code": "denominator-exclusion",
              "display": "Denominator Exclusion"
            } ]
          },
          "count": 0
        } ],
        "measureScore": 1.0
      } ],
      "evaluatedResources": {
        "reference": "#8fd27480-2261-4f60-8de9-09ac6ac591ce"
      }
    },
    "request": {
      "method": "PUT",
      "url": "MeasureReport/measurereport-numer-EXM165-FHIR3"
    }
  }, {
    "resource": {
      "resourceType": "Encounter",
      "id": "numer-EXM165-FHIR3-1",
      "meta": {
        "profile": [ "http://hl7.org/fhir/us/core/StructureDefinition/us-core-encounter" ]
      },
      "status": "finished",
      "class": {
        "system": "http://terminology.hl7.org/CodeSystem/v3-ActCode",
        "code": "IMP",
        "display": "inpatient encounter"
      },
      "type": [ {
        "coding": [ {
          "system": "http://www.ama-assn.org/go/cpt",
          "code": "99202"
        } ]
      } ],
      "subject": {
        "reference": "Patient/numer-EXM165-FHIR3"
      },
      "period": {
        "start": "2019-05-01T12:51:21-06:00",
        "end": "2019-05-01T17:51:21-06:00"
      }
    },
    "request": {
      "method": "PUT",
      "url": "Encounter/numer-EXM165-FHIR3-1"
    }
  }, {
    "resource": {
      "resourceType": "Bundle",
      "id": "tests-Patient-bundle",
      "type": "transaction",
      "entry": [ {
        "resource": {
          "resourceType": "Patient",
          "id": "denom-EXM165-FHIR3",
          "meta": {
            "profile": [ "http://hl7.org/fhir/us/core/StructureDefinition/us-core-patient" ]
          },
          "extension": [ {
            "url": "http://hl7.org/fhir/us/core/StructureDefinition/us-core-race",
            "extension": [ {
              "url": "ombCategory",
              "valueCoding": {
                "system": "urn:oid:2.16.840.1.113883.6.238",
                "code": "2106-3",
                "display": "White"
              }
            } ]
          }, {
            "url": "http://hl7.org/fhir/us/core/StructureDefinition/us-core-ethnicity",
            "extension": [ {
              "url": "ombCategory",
              "valueCoding": {
                "system": "urn:oid:2.16.840.1.113883.6.238",
                "code": "2186-5",
                "display": "Not Hispanic or Latino"
              }
            } ]
          } ],
          "identifier": [ {
            "use": "usual",
            "type": {
              "coding": [ {
                "system": "http://terminology.hl7.org/CodeSystem/v2-0203",
                "code": "MR",
                "display": "Medical Record Number"
              } ]
            },
            "system": "http://hospital.smarthealthit.org",
            "value": "999999992"
          } ],
          "name": [ {
            "family": "Jones",
            "given": [ "Rick" ]
          } ],
          "gender": "male",
          "birthDate": "1976-04-26"
        },
        "request": {
          "method": "PUT",
          "url": "Patient/denom-EXM165-FHIR3"
        }
      } ]
    },
    "request": {
      "method": "PUT",
      "url": "tests-Patient-bundle"
    }
  } ]
}