{
  "resourceType": "Bundle",
  "id": "tests-denom-EXM124-bundle",
  "type": "transaction",
  "entry": [ {
    "resource": {
      "resourceType": "Encounter",
      "id": "denom-EXM124-2",
      "meta": {
        "profile": [ "http://hl7.org/fhir/us/core/StructureDefinition/us-core-encounter" ]
      },
      "status": "finished",
      "class": {
        "system": "http://terminology.hl7.org/CodeSystem/v3-ActCode",
        "code": "AMB",
        "display": "ambulatory"
      },
      "type": [ {
        "coding": [ {
          "system": "http://www.ama-assn.org/go/cpt",
          "code": "99201",
          "display": "Office or other outpatient visit for the evaluation and management of a new patient, which requires these 3 key components: A problem focused history; A problem focused examination; Straightforward medical decision making. Counseling and/or coordination of care with other physicians, other qualified health care professionals, or agencies are provided consistent with the nature of the problem(s) and the patient's and/or family's needs. Usually, the presenting problem(s) are self limited or minor. Typically, 10 minutes are spent face-to-face with the patient and/or family."
        } ]
      } ],
      "subject": {
        "reference": "Patient/denom-EXM124"
      },
      "period": {
        "start": "2019-01-01T01:00:00.0",
        "end": "2019-01-02T01:00:00.0"
      }
    },
    "request": {
      "method": "PUT",
      "url": "Encounter/denom-EXM124-2"
    }
  }, {
    "resource": {
      "resourceType": "Patient",
      "id": "denom-EXM124",
      "meta": {
        "profile": [ "http://hl7.org/fhir/us/core/StructureDefinition/us-core-patient" ]
      },
      "extension": [ {
        "url": "http://hl7.org/fhir/us/core/StructureDefinition/us-core-race",
        "extension": [ {
          "url": "ombCategory",
          "valueCoding": {
            "system": "urn:oid:2.16.840.1.113883.6.238",
            "code": "2028-9",
            "display": "Asian"
          }
        } ]
      }, {
        "url": "http://hl7.org/fhir/us/core/StructureDefinition/us-core-ethnicity",
        "extension": [ {
          "url": "ombCategory",
          "valueCoding": {
            "system": "urn:oid:2.16.840.1.113883.6.238",
            "code": "2135-2",
            "display": "Hispanic or Latino"
          }
        } ]
      } ],
      "identifier": [ {
        "use": "usual",
        "type": {
          "coding": [ {
            "system": "http://terminology.hl7.org/CodeSystem/v2-0203",
            "code": "MR",
            "display": "Medical Record Number"
          } ]
        },
        "system": "http://hospital.smarthealthit.org",
        "value": "999999995"
      } ],
      "name": [ {
        "family": "Bertha",
        "given": [ "Betty" ]
      } ],
      "gender": "female",
      "birthDate": "1995-01-01"
    },
    "request": {
      "method": "PUT",
      "url": "Patient/denom-EXM124"
    }
  }, {
    "resource": {
      "resourceType": "MeasureReport",
      "id": "measurereport-denom-EXM124",
      "contained": [ {
        "resourceType": "Bundle",
        "id": "f01dc844-6c1a-4aae-a0a0-ef0b2afd8a5d",
        "type": "collection",
        "entry": [ {
          "fullUrl": "Patient/denom-EXM124",
          "resource": {
            "resourceType": "Patient",
            "id": "denom-EXM124",
            "meta": {
              "profile": [ "http://hl7.org/fhir/us/core/StructureDefinition/us-core-patient" ]
            },
            "extension": [ {
              "url": "http://hl7.org/fhir/us/core/StructureDefinition/us-core-race",
              "extension": [ {
                "url": "ombCategory",
                "valueCoding": {
                  "system": "urn:oid:2.16.840.1.113883.6.238",
                  "code": "2028-9",
                  "display": "Asian"
                }
              } ]
            }, {
              "url": "http://hl7.org/fhir/us/core/StructureDefinition/us-core-ethnicity",
              "extension": [ {
                "url": "ombCategory",
                "valueCoding": {
                  "system": "urn:oid:2.16.840.1.113883.6.238",
                  "code": "2135-2",
                  "display": "Hispanic or Latino"
                }
              } ]
            } ],
            "identifier": [ {
              "use": "usual",
              "type": {
                "coding": [ {
                  "system": "http://terminology.hl7.org/CodeSystem/v2-0203",
                  "code": "MR",
                  "display": "Medical Record Number"
                } ]
              },
              "system": "http://hospital.smarthealthit.org",
              "value": "999999995"
            } ],
            "name": [ {
              "family": "Bertha",
              "given": [ "Betty" ]
            } ],
            "gender": "female",
            "birthDate": "1995-01-01"
          }
        }, {
          "fullUrl": "Encounter/denom-EXM124-2",
          "resource": {
            "resourceType": "Encounter",
            "id": "denom-EXM124-2",
            "meta": {
              "profile": [ "http://hl7.org/fhir/us/core/StructureDefinition/us-core-encounter" ]
            },
            "status": "finished",
            "class": {
              "system": "http://terminology.hl7.org/CodeSystem/v3-ActCode",
              "code": "AMB",
              "display": "ambulatory"
            },
            "type": [ {
              "coding": [ {
                "system": "http://www.ama-assn.org/go/cpt",
                "code": "99201",
                "display": "Office or other outpatient visit for the evaluation and management of a new patient, which requires these 3 key components: A problem focused history; A problem focused examination; Straightforward medical decision making. Counseling and/or coordination of care with other physicians, other qualified health care professionals, or agencies are provided consistent with the nature of the problem(s) and the patient's and/or family's needs. Usually, the presenting problem(s) are self limited or minor. Typically, 10 minutes are spent face-to-face with the patient and/or family."
              } ]
            } ],
            "subject": {
              "reference": "Patient/denom-EXM124"
            },
            "period": {
              "start": "2019-01-01T01:00:00.0",
              "end": "2019-01-02T01:00:00.0"
            }
          }
        }, {
          "fullUrl": "11268d3d-1f03-46ed-9781-24ae42857ae6",
          "resource": {
            "resourceType": "List",
            "id": "11268d3d-1f03-46ed-9781-24ae42857ae6",
            "title": "initial-population",
            "entry": [ {
              "item": {
                "reference": "denom-EXM124"
              }
            }, {
              "item": {
                "reference": "denom-EXM124-2"
              }
            } ]
          }
        }, {
          "fullUrl": "9f1d79ec-4186-4d1e-8b93-7744e3b8b8bf",
          "resource": {
            "resourceType": "List",
            "id": "9f1d79ec-4186-4d1e-8b93-7744e3b8b8bf",
            "title": "denominator",
            "entry": [ {
              "item": {
                "reference": "denom-EXM124"
              }
            }, {
              "item": {
                "reference": "denom-EXM124-2"
              }
            } ]
          }
        }, {
          "fullUrl": "a2e0105f-22d9-43a1-a98b-8c2107e86d8a",
          "resource": {
            "resourceType": "List",
            "id": "a2e0105f-22d9-43a1-a98b-8c2107e86d8a",
            "title": "numerator",
            "entry": [ {
              "item": {
                "reference": "denom-EXM124-3"
              }
            } ]
          }
        }, {
          "fullUrl": "Observation/denom-EXM124-3",
          "resource": {
            "resourceType": "Observation",
            "id": "denom-EXM124-3",
            "meta": {
              "profile": [ "http://hl7.org/fhir/observation" ]
            },
            "status": "final",
            "code": {
              "coding": [ {
                "system": "http://loinc.org",
                "code": "10524-7",
                "display": "Microscopic observation [Identifier] in Cervix by Cyto stain"
              } ]
            },
            "subject": {
              "reference": "Patient/denom-EXM124"
            },
            "effectiveDateTime": "2019-11-01T00:00:00"
          }
        } ]
      } ],
      "status": "complete",
      "type": "individual",
      "measure": "Measure/measure-EXM124-8.2.000",
      "subject": {
        "reference": "Patient/denom-EXM124"
      },
      "period": {
        "start": "2018-12-31T17:00:00-07:00",
        "end": "2019-12-30T17:00:00-07:00"
      },
      "group": [ {
        "id": "group-1",
        "population": [ {
          "code": {
            "coding": [ {
              "system": "http://terminology.hl7.org/CodeSystem/measure-population",
              "code": "initial-population",
              "display": "Initial Population"
            } ]
          },
          "count": 1
        }, {
          "code": {
            "coding": [ {
              "system": "http://terminology.hl7.org/CodeSystem/measure-population",
              "code": "numerator",
              "display": "Numerator"
            } ]
          },
          "count": 0
        }, {
          "code": {
            "coding": [ {
              "system": "http://terminology.hl7.org/CodeSystem/measure-population",
              "code": "denominator",
              "display": "Denominator"
            } ]
          },
          "count": 1
        }, {
          "code": {
            "coding": [ {
              "system": "http://terminology.hl7.org/CodeSystem/measure-population",
              "code": "denominator-exclusion",
              "display": "Denominator Exclusion"
            } ]
          },
          "count": 0
        } ],
        "measureScore": {
          "value": 0.0
        }
      } ],
      "evaluatedResource": [ {
        "reference": "#f01dc844-6c1a-4aae-a0a0-ef0b2afd8a5d"
      } ]
    },
    "request": {
      "method": "PUT",
      "url": "MeasureReport/measurereport-denom-EXM124"
    }
  }, {
    "resource": {
      "resourceType": "Observation",
      "id": "denom-EXM124-3",
      "meta": {
        "profile": [ "http://hl7.org/fhir/observation" ]
      },
      "status": "final",
      "code": {
        "coding": [ {
          "system": "http://loinc.org",
          "code": "10524-7",
          "display": "Microscopic observation [Identifier] in Cervix by Cyto stain"
        } ]
      },
      "subject": {
        "reference": "Patient/denom-EXM124"
      },
      "effectiveDateTime": "2019-11-01T00:00:00"
    },
    "request": {
      "method": "PUT",
      "url": "Observation/denom-EXM124-3"
    }
  } ]
}