{
  "resourceType": "Bundle",
  "id": "tests-denom-EXM130-FHIR3-bundle",
  "type": "transaction",
  "entry": [ {
    "resource": {
      "resourceType": "Patient",
      "id": "denom-EXM130-FHIR3",
      "meta": {
        "profile": [ "http://hl7.org/fhir/us/core/StructureDefinition/us-core-patient" ]
      },
      "extension": [ {
        "url": "http://hl7.org/fhir/us/core/StructureDefinition/us-core-race",
        "extension": [ {
          "url": "ombCategory",
          "valueCoding": {
            "system": "urn:oid:2.16.840.1.113883.6.238",
            "code": "2028-9",
            "display": "Asian"
          }
        } ]
      }, {
        "url": "http://hl7.org/fhir/us/core/StructureDefinition/us-core-ethnicity",
        "extension": [ {
          "url": "ombCategory",
          "valueCoding": {
            "system": "urn:oid:2.16.840.1.113883.6.238",
            "code": "2135-2",
            "display": "Hispanic or Latino"
          }
        } ]
      } ],
      "identifier": [ {
        "use": "usual",
        "type": {
          "coding": [ {
            "system": "http://terminology.hl7.org/CodeSystem/v2-0203",
            "code": "MR",
            "display": "Medical Record Number"
          } ]
        },
        "system": "http://hospital.smarthealthit.org",
        "value": "999999992"
      } ],
      "name": [ {
        "family": "Dere",
        "given": [ "Ben" ]
      } ],
      "gender": "male",
      "birthDate": "1965-01-01"
    },
    "request": {
      "method": "PUT",
      "url": "Patient/denom-EXM130-FHIR3"
    }
  }, {
    "resource": {
      "resourceType": "Encounter",
      "id": "denom-EXM130-FHIR3-1",
      "meta": {
        "profile": [ "http://hl7.org/fhir/us/core/StructureDefinition/us-core-encounter" ]
      },
      "status": "finished",
      "class": {
        "system": "http://terminology.hl7.org/CodeSystem/v3-ActCode",
        "code": "AMB",
        "display": "ambulatory"
      },
      "type": [ {
        "coding": [ {
          "system": "http://www.ama-assn.org/go/cpt",
          "code": "99201",
          "display": "Office or other outpatient visit for the evaluation and management of a new patient, which requires these 3 key components: A problem focused history; A problem focused examination; Straightforward medical decision making. Counseling and/or coordination of care with other physicians, other qualified health care professionals, or agencies are provided consistent with the nature of the problem(s) and the patient's and/or family's needs. Usually, the presenting problem(s) are self limited or minor. Typically, 10 minutes are spent face-to-face with the patient and/or family."
        } ]
      } ],
      "subject": {
        "reference": "Patient/denom-EXM130-FHIR3"
      },
      "period": {
        "start": "2019-05-30T00:00:00-00:00",
        "end": "2019-05-31T00:00:00-00:00"
      }
    },
    "request": {
      "method": "PUT",
      "url": "Encounter/denom-EXM130-FHIR3-1"
    }
  }, {
    "resource": {
      "resourceType": "Bundle",
      "id": "tests-Encounter-bundle",
      "type": "transaction",
      "entry": [ {
        "resource": {
          "resourceType": "Encounter",
          "id": "denom-EXM130-FHIR3-1",
          "meta": {
            "profile": [ "http://hl7.org/fhir/us/core/StructureDefinition/us-core-encounter" ]
          },
          "status": "finished",
          "class": {
            "system": "http://terminology.hl7.org/CodeSystem/v3-ActCode",
            "code": "AMB",
            "display": "ambulatory"
          },
          "type": [ {
            "coding": [ {
              "system": "http://www.ama-assn.org/go/cpt",
              "code": "99201",
              "display": "Office or other outpatient visit for the evaluation and management of a new patient, which requires these 3 key components: A problem focused history; A problem focused examination; Straightforward medical decision making. Counseling and/or coordination of care with other physicians, other qualified health care professionals, or agencies are provided consistent with the nature of the problem(s) and the patient's and/or family's needs. Usually, the presenting problem(s) are self limited or minor. Typically, 10 minutes are spent face-to-face with the patient and/or family."
            } ]
          } ],
          "subject": {
            "reference": "Patient/denom-EXM130-FHIR3"
          },
          "period": {
            "start": "2019-05-30T00:00:00-00:00",
            "end": "2019-05-31T00:00:00-00:00"
          }
        },
        "request": {
          "method": "PUT",
          "url": "Encounter/denom-EXM130-FHIR3-1"
        }
      } ]
    },
    "request": {
      "method": "PUT",
      "url": "tests-Encounter-bundle"
    }
  }, {
    "resource": {
      "resourceType": "Bundle",
      "id": "tests-Patient-bundle",
      "type": "transaction",
      "entry": [ {
        "resource": {
          "resourceType": "Patient",
          "id": "denom-EXM130-FHIR3",
          "meta": {
            "profile": [ "http://hl7.org/fhir/us/core/StructureDefinition/us-core-patient" ]
          },
          "extension": [ {
            "url": "http://hl7.org/fhir/us/core/StructureDefinition/us-core-race",
            "extension": [ {
              "url": "ombCategory",
              "valueCoding": {
                "system": "urn:oid:2.16.840.1.113883.6.238",
                "code": "2028-9",
                "display": "Asian"
              }
            } ]
          }, {
            "url": "http://hl7.org/fhir/us/core/StructureDefinition/us-core-ethnicity",
            "extension": [ {
              "url": "ombCategory",
              "valueCoding": {
                "system": "urn:oid:2.16.840.1.113883.6.238",
                "code": "2135-2",
                "display": "Hispanic or Latino"
              }
            } ]
          } ],
          "identifier": [ {
            "use": "usual",
            "type": {
              "coding": [ {
                "system": "http://terminology.hl7.org/CodeSystem/v2-0203",
                "code": "MR",
                "display": "Medical Record Number"
              } ]
            },
            "system": "http://hospital.smarthealthit.org",
            "value": "999999992"
          } ],
          "name": [ {
            "family": "Dere",
            "given": [ "Ben" ]
          } ],
          "gender": "male",
          "birthDate": "1965-01-01"
        },
        "request": {
          "method": "PUT",
          "url": "Patient/denom-EXM130-FHIR3"
        }
      } ]
    },
    "request": {
      "method": "PUT",
      "url": "tests-Patient-bundle"
    }
  }, {
    "resource": {
      "resourceType": "Procedure",
      "id": "denom-EXM130-FHIR3-2",
      "meta": {
        "profile": [ "http://hl7.org/fhir/us/core/StructureDefinition/us-core-procedure" ]
      },
      "status": "completed",
      "code": {
        "coding": [ {
          "system": "http://www.ama-assn.org/go/cpt",
          "code": "44393",
          "display": "Colonoscopy through stoma; with ablation of tumor(s), polyp(s), or other lesion(s) not amenable to removal by hot biopsy forceps, bipolar cautery or snare technique"
        } ]
      },
      "subject": {
        "reference": "Patient/denom-EXM130-FHIR3"
      },
      "performedPeriod": {
        "start": "2009-12-30T12:00:00",
        "end": "2009-12-30T13:00:00"
      }
    },
    "request": {
      "method": "PUT",
      "url": "Procedure/denom-EXM130-FHIR3-2"
    }
  }, {
    "resource": {
      "resourceType": "MeasureReport",
      "id": "measurereport-denom-EXM130-FHIR3",
      "contained": [ {
        "resourceType": "Bundle",
        "id": "f058cd0e-4dfd-46d6-b95d-af36931aaa9f",
        "type": "collection",
        "entry": [ {
          "fullUrl": "Encounter/denom-EXM130-FHIR3-1",
          "resource": {
            "resourceType": "Encounter",
            "id": "denom-EXM130-FHIR3-1",
            "meta": {
              "profile": [ "http://hl7.org/fhir/us/core/StructureDefinition/us-core-encounter" ]
            },
            "status": "finished",
            "class": {
              "system": "http://terminology.hl7.org/CodeSystem/v3-ActCode",
              "code": "AMB",
              "display": "ambulatory"
            },
            "type": [ {
              "coding": [ {
                "system": "http://www.ama-assn.org/go/cpt",
                "code": "99201",
                "display": "Office or other outpatient visit for the evaluation and management of a new patient, which requires these 3 key components: A problem focused history; A problem focused examination; Straightforward medical decision making. Counseling and/or coordination of care with other physicians, other qualified health care professionals, or agencies are provided consistent with the nature of the problem(s) and the patient's and/or family's needs. Usually, the presenting problem(s) are self limited or minor. Typically, 10 minutes are spent face-to-face with the patient and/or family."
              } ]
            } ],
            "subject": {
              "reference": "Patient/denom-EXM130-FHIR3"
            },
            "period": {
              "start": "2019-05-30T00:00:00-00:00",
              "end": "2019-05-31T00:00:00-00:00"
            }
          }
        }, {
          "fullUrl": "5a5622d9-a4ee-4d92-8734-33a12ad6f7a4",
          "resource": {
            "resourceType": "List",
            "id": "5a5622d9-a4ee-4d92-8734-33a12ad6f7a4",
            "title": "initial-population",
            "entry": [ {
              "item": {
                "reference": "denom-EXM130-FHIR3-1"
              }
            }, {
              "item": {
                "reference": "denom-EXM130-FHIR3"
              }
            } ]
          }
        }, {
          "fullUrl": "Procedure/denom-EXM130-FHIR3-2",
          "resource": {
            "resourceType": "Procedure",
            "id": "denom-EXM130-FHIR3-2",
            "meta": {
              "profile": [ "http://hl7.org/fhir/us/core/StructureDefinition/us-core-procedure" ]
            },
            "status": "completed",
            "code": {
              "coding": [ {
                "system": "http://www.ama-assn.org/go/cpt",
                "code": "44393",
                "display": "Colonoscopy through stoma; with ablation of tumor(s), polyp(s), or other lesion(s) not amenable to removal by hot biopsy forceps, bipolar cautery or snare technique"
              } ]
            },
            "subject": {
              "reference": "Patient/denom-EXM130-FHIR3"
            },
            "performedPeriod": {
              "start": "2009-12-30T12:00:00",
              "end": "2009-12-30T13:00:00"
            }
          }
        }, {
          "fullUrl": "6819b91a-c4f7-4368-bd3c-a21c7a8ebe2a",
          "resource": {
            "resourceType": "List",
            "id": "6819b91a-c4f7-4368-bd3c-a21c7a8ebe2a",
            "title": "numerator",
            "entry": [ {
              "item": {
                "reference": "denom-EXM130-FHIR3-2"
              }
            } ]
          }
        }, {
          "fullUrl": "Patient/denom-EXM130-FHIR3",
          "resource": {
            "resourceType": "Patient",
            "id": "denom-EXM130-FHIR3",
            "meta": {
              "profile": [ "http://hl7.org/fhir/us/core/StructureDefinition/us-core-patient" ]
            },
            "extension": [ {
              "url": "http://hl7.org/fhir/us/core/StructureDefinition/us-core-race",
              "extension": [ {
                "url": "ombCategory",
                "valueCoding": {
                  "system": "urn:oid:2.16.840.1.113883.6.238",
                  "code": "2028-9",
                  "display": "Asian"
                }
              } ]
            }, {
              "url": "http://hl7.org/fhir/us/core/StructureDefinition/us-core-ethnicity",
              "extension": [ {
                "url": "ombCategory",
                "valueCoding": {
                  "system": "urn:oid:2.16.840.1.113883.6.238",
                  "code": "2135-2",
                  "display": "Hispanic or Latino"
                }
              } ]
            } ],
            "identifier": [ {
              "use": "usual",
              "type": {
                "coding": [ {
                  "system": "http://terminology.hl7.org/CodeSystem/v2-0203",
                  "code": "MR",
                  "display": "Medical Record Number"
                } ]
              },
              "system": "http://hospital.smarthealthit.org",
              "value": "999999992"
            } ],
            "name": [ {
              "family": "Dere",
              "given": [ "Ben" ]
            } ],
            "gender": "male",
            "birthDate": "1965-01-01"
          }
        } ]
      } ],
      "status": "complete",
      "type": "individual",
      "measure": {
        "reference": "Measure/measure-EXM130-FHIR3-7.2.000"
      },
      "patient": {
        "reference": "Patient/denom-EXM130-FHIR3"
      },
      "period": {
        "start": "2019-01-01T00:00:00-07:00",
        "end": "2019-12-31T00:00:00-07:00"
      },
      "group": [ {
        "identifier": {
          "value": "group-1"
        },
        "population": [ {
          "code": {
            "coding": [ {
              "system": "http://terminology.hl7.org/CodeSystem/measure-population",
              "code": "initial-population",
              "display": "Initial Population"
            } ]
          },
          "count": 1
        }, {
          "code": {
            "coding": [ {
              "system": "http://terminology.hl7.org/CodeSystem/measure-population",
              "code": "numerator",
              "display": "Numerator"
            } ]
          },
          "count": 0
        }, {
          "code": {
            "coding": [ {
              "system": "http://terminology.hl7.org/CodeSystem/measure-population",
              "code": "denominator",
              "display": "Denominator"
            } ]
          },
          "count": 1
        }, {
          "code": {
            "coding": [ {
              "system": "http://terminology.hl7.org/CodeSystem/measure-population",
              "code": "denominator-exclusion",
              "display": "Denominator Exclusion"
            } ]
          },
          "count": 0
        } ],
        "measureScore": 0.0
      } ],
      "evaluatedResources": {
        "reference": "#f058cd0e-4dfd-46d6-b95d-af36931aaa9f"
      }
    },
    "request": {
      "method": "PUT",
      "url": "MeasureReport/measurereport-denom-EXM130-FHIR3"
    }
  }, {
    "resource": {
      "resourceType": "Bundle",
      "id": "tests-Procedure-bundle",
      "type": "transaction",
      "entry": [ {
        "resource": {
          "resourceType": "Procedure",
          "id": "denom-EXM130-FHIR3-2",
          "meta": {
            "profile": [ "http://hl7.org/fhir/us/core/StructureDefinition/us-core-procedure" ]
          },
          "status": "completed",
          "code": {
            "coding": [ {
              "system": "http://www.ama-assn.org/go/cpt",
              "code": "44393",
              "display": "Colonoscopy through stoma; with ablation of tumor(s), polyp(s), or other lesion(s) not amenable to removal by hot biopsy forceps, bipolar cautery or snare technique"
            } ]
          },
          "subject": {
            "reference": "Patient/denom-EXM130-FHIR3"
          },
          "performedPeriod": {
            "start": "2009-12-30T12:00:00",
            "end": "2009-12-30T13:00:00"
          }
        },
        "request": {
          "method": "PUT",
          "url": "Procedure/denom-EXM130-FHIR3-2"
        }
      } ]
    },
    "request": {
      "method": "PUT",
      "url": "tests-Procedure-bundle"
    }
  } ]
}