{
  "resourceType": "Bundle",
  "id": "tests-measure-strat2-EXM111-bundle",
  "type": "transaction",
  "entry": [ {
    "resource": {
      "resourceType": "Condition",
      "id": "measure-strat2-EXM111-condition",
      "meta": {
        "profile": [ "http://hl7.org/fhir/us/core/StructureDefinition/us-core-condition" ]
      },
      "verificationStatus": {
        "coding": [ {
          "system": "http://terminology.hl7.org/CodeSystem/condition-ver-status",
          "code": "confirmed",
          "display": "Confirmed"
        } ]
      },
      "category": [ {
        "coding": [ {
          "system": "http://terminology.hl7.org/CodeSystem/condition-category",
          "code": "encounter-diagnosis",
          "display": "Encounter Diagnosis"
        } ]
      } ],
      "code": {
        "coding": [ {
          "system": "http://snomed.info/sct",
          "code": "111475002",
          "display": "Neurosis (disorder)"
        } ]
      },
      "subject": {
        "reference": "Patient/measure-strat2-EXM111"
      },
      "encounter": {
        "reference": "Encounter/measure-strat2-EXM111-Enc-Admit"
      }
    },
    "request": {
      "method": "PUT",
      "url": "Condition/measure-strat2-EXM111-condition"
    }
  }, {
    "resource": {
      "resourceType": "Encounter",
      "id": "measure-strat2-EXM111-Enc-Admit",
      "meta": {
        "profile": [ "http://hl7.org/fhir/us/core/StructureDefinition/us-core-encounter" ]
      },
      "status": "finished",
      "class": {
        "system": "http://terminology.hl7.org/CodeSystem/v3-ActCode",
        "code": "IMP",
        "display": "inpatient encounter"
      },
      "type": [ {
        "coding": [ {
          "system": "http://snomed.info/sct",
          "code": "183452005",
          "display": "Emergency Hospital Admission (procedure)"
        } ]
      } ],
      "subject": {
        "reference": "Patient/measure-strat2-EXM111"
      },
      "period": {
        "start": "2019-03-15T10:00:00-00:00",
        "end": "2019-03-17T10:00:00-00:00"
      },
      "diagnosis": [ {
        "condition": {
          "reference": "Condition/measure-strat2-EXM111-condition"
        },
        "use": {
          "coding": [ {
            "system": "http://terminology.hl7.org/CodeSystem/diagnosis-role",
            "code": "AD",
            "display": "Admission diagnosis"
          } ]
        },
        "rank": 1
      } ],
      "location": [ {
        "status": "completed",
        "period": {
          "start": "2019-03-15T05:00:00-00:00",
          "end": "2019-03-15T10:00:00-00:00"
        }
      } ]
    },
    "request": {
      "method": "PUT",
      "url": "Encounter/measure-strat2-EXM111-Enc-Admit"
    }
  }, {
    "resource": {
      "resourceType": "Encounter",
      "id": "measure-strat2-EXM111-Enc-EDVisit",
      "meta": {
        "profile": [ "http://hl7.org/fhir/us/core/StructureDefinition/us-core-encounter" ]
      },
      "status": "finished",
      "type": [ {
        "coding": [ {
          "system": "http://snomed.info/sct",
          "code": "4525004",
          "display": "Emergency department patient visit (procedure)"
        } ]
      } ],
      "subject": {
        "reference": "Patient/measure-strat2-EXM111"
      },
      "period": {
        "start": "2019-03-15T05:00:00-00:00",
        "end": "2019-03-15T09:45:00-00:00"
      },
      "location": [ {
        "location": {
          "reference": "Location/measure-strat2-EXM111-Location"
        },
        "status": "completed",
        "period": {
          "start": "2019-03-15T05:00:00-00:00",
          "end": "2019-03-15T09:30:00-00:00"
        }
      } ]
    },
    "request": {
      "method": "PUT",
      "url": "Encounter/measure-strat2-EXM111-Enc-EDVisit"
    }
  }, {
    "resource": {
      "resourceType": "Location",
      "id": "measure-strat2-EXM111-Location",
      "status": "active",
      "name": "Sam Chindi's House of Shamans",
      "type": [ {
        "coding": [ {
          "system": "http://snomed.info/sct",
          "code": "4525004",
          "display": "Emergency department patient visit (procedure)"
        } ]
      } ]
    },
    "request": {
      "method": "PUT",
      "url": "Location/measure-strat2-EXM111-Location"
    }
  }, {
    "resource": {
      "resourceType": "Observation",
      "id": "measure-strat2-EXM111-observation",
      "meta": {
        "profile": [ "http://hl7.org/fhir/observation" ]
      },
      "status": "final",
      "code": {
        "coding": [ {
          "system": "http://loinc.org",
          "code": "78307-6",
          "display": "Physician Emergency Department Note"
        } ]
      },
      "subject": {
        "reference": "Patient/measure-strat2-EXM111"
      },
      "encounter": {
        "reference": "Encounter/measure-strat2-EXM111-Enc-EDVisit"
      },
      "effectivePeriod": {
        "start": "2019-03-15T07:00:00-00:00",
        "end": "2019-03-15T07:15:00-00:00"
      },
      "valueCodeableConcept": {
        "coding": [ {
          "system": "http://snomed.info/sct",
          "code": "183783005",
          "display": "Listed for admission to hospital (finding)"
        } ]
      }
    },
    "request": {
      "method": "PUT",
      "url": "Observation/measure-strat2-EXM111-observation"
    }
  }, {
    "resource": {
      "resourceType": "Patient",
      "id": "measure-strat2-EXM111",
      "meta": {
        "profile": [ "http://hl7.org/fhir/us/core/StructureDefinition/us-core-patient" ]
      },
      "extension": [ {
        "url": "http://hl7.org/fhir/us/core/StructureDefinition/us-core-race",
        "extension": [ {
          "url": "ombCategory",
          "valueCoding": {
            "system": "urn:oid:2.16.840.1.113883.6.238",
            "code": "2106-3",
            "display": "White"
          }
        } ]
      }, {
        "url": "http://hl7.org/fhir/us/core/StructureDefinition/us-core-ethnicity",
        "extension": [ {
          "url": "ombCategory",
          "valueCoding": {
            "system": "urn:oid:2.16.840.1.113883.6.238",
            "code": "2186-5",
            "display": "Not Hispanic or Latino"
          }
        } ]
      } ],
      "identifier": [ {
        "use": "usual",
        "type": {
          "coding": [ {
            "system": "http://terminology.hl7.org/CodeSystem/v2-0203",
            "code": "MR",
            "display": "Medical Record Number"
          } ]
        },
        "system": "http://hospital.smarthealthit.org",
        "value": "9999999933"
      } ],
      "name": [ {
        "family": "Charles",
        "given": [ "Crowfoot" ]
      } ],
      "gender": "male",
      "birthDate": "1943-11-13"
    },
    "request": {
      "method": "PUT",
      "url": "Patient/measure-strat2-EXM111"
    }
  }, {
    "resource": {
      "resourceType": "ServiceRequest",
      "id": "measure-strat2-EXM111-ServiceRequest",
      "status": "active",
      "intent": "order",
      "code": {
        "coding": [ {
          "system": "http://snomed.info/sct",
          "code": "10378005",
          "display": "Hospital admisison,  emergency, from emergency room, accidental injury (procedure)"
        } ]
      },
      "subject": {
        "reference": "Patient/measure-strat2-EXM111"
      },
      "encounter": {
        "reference": "Encounter/measure-strat2-EXM111-Enc-EDVisit"
      },
      "authoredOn": "2019-03-15T09:10:00-00:00"
    },
    "request": {
      "method": "PUT",
      "url": "ServiceRequest/measure-strat2-EXM111-ServiceRequest"
    }
  } ]
}