{
  "resourceType": "Bundle",
  "id": "Roberta-Stacy-McLean-416-Encounter-3981",
  "type": "transaction",
  "entry": [
    {
      "fullUrl": "http://localhost:8080/cqf-ruler/baseDstu3/Encounter/Encounter-3981",
      "resource": {
        "resourceType": "Encounter",
        "id": "Encounter-3981",
        "meta": {
          "profile": [
            "http://hl7.org/fhir/us/hedis/StructureDefinition/hedis-encounter"
          ]
        },
        "extension": [
          {
            "url": "http://mihin.org/extension/copyright",
            "valueString": "Copyright 2014-2018 Michigan Health Information Network Shared Services. Licensed under the Apache License, Version 2.0 (the 'License'); you may not use this file except in compliance with the License. You may obtain a copy of the License at  http://www.apache.org/licenses/LICENSE-2.0.  Unless required by applicable law or agreed to in writing, software distributed under the License is distributed on an 'AS IS' BASIS, WITHOUT WARRANTIES OR CONDITIONS OF ANY KIND, either express or implied. See the License for the specific language governing permissions and limitations under the License."
          }
        ],
        "status": "finished",
        "class": {
          "system": "http://hl7.org/fhir/encounter-class",
          "code": "ambulatory",
          "display": "ambulatory"
        },
        "type": [
          {
            "coding": [
              {
                "system": "http://snomed.info/sct",
                "code": "185470005",
                "display": "Combined Office Visits"
              }
            ]
          }
        ],
        "subject": {
          "reference": "Patient/Patient-416",
          "display": "Roberta Stacy McLean"
        },
        "participant": [
          {
            "period": {
              "start": "2019-03-04T00:00:00-05:00",
              "end": "2019-03-04T00:00:00-05:00"
            },
            "individual": {
              "reference": "Practitioner/Practitioner-42",
              "display": "Miguel Jose Herring MD"
            }
          }
        ],
        "period": {
          "start": "2019-03-04T00:00:00-05:00",
          "end": "2019-03-04T00:00:00-05:00"
        },
        "location": [
          {
            "location": {
              "reference": "Location/Location-168",
              "display": "St. Michael's Hospital"
            }
          }
        ],
        "serviceProvider": {
          "reference": "Organization/Organization-1014",
          "display": "St. Michael's Hospital"
        }
      },
      "request": {
        "method": "PUT",
        "url": "http://localhost:8080/cqf-ruler/baseDstu3/Encounter/Encounter-3981"
      }
    },
    {
      "fullUrl": "http://localhost:8080/cqf-ruler/baseDstu3/Procedure/Procedure-117375",
      "resource": {
        "resourceType": "Procedure",
        "id": "Procedure-117375",
        "meta": {
          "profile": [
            "http://hl7.org/fhir/us/hedis/StructureDefinition/hedis-procedure"
          ]
        },
        "extension": [
          {
            "url": "http://mihin.org/extension/copyright",
            "valueString": "Copyright 2014-2018 Michigan Health Information Network Shared Services. Licensed under the Apache License, Version 2.0 (the 'License'); you may not use this file except in compliance with the License. You may obtain a copy of the License at  http://www.apache.org/licenses/LICENSE-2.0.  Unless required by applicable law or agreed to in writing, software distributed under the License is distributed on an 'AS IS' BASIS, WITHOUT WARRANTIES OR CONDITIONS OF ANY KIND, either express or implied. See the License for the specific language governing permissions and limitations under the License."
          }
        ],
        "identifier": [
          {
            "use": "official",
            "system": "mihin.org/fhir/sid/elementId",
            "value": "22963214-d940-4822-8356-82fb62663b52"
          }
        ],
        "status": "completed",
        "code": {
          "coding": [
            {
              "system": "http://www.ama-assn.org/go/cpt",
              "code": "77056"
            }
          ]
        },
        "subject": {
          "reference": "Patient/Patient-416",
          "display": "Roberta Stacy McLean"
        },
        "context": {
          "reference": "Encounter/Encounter-3981",
          "display": "Ambulatory_Encounter"
        },
        "performedPeriod": {
          "start": "2019-03-04T00:00:00-05:00",
          "end": "2019-03-04T00:00:00-05:00"
        },
        "performer": [
          {
            "actor": {
              "reference": "Practitioner/Practitioner-42",
              "display": "Miguel Jose Herring MD"
            }
          }
        ],
        "location": {
          "reference": "Location/Location-168",
          "display": "St. Michael's Hospital"
        }
      },
      "request": {
        "method": "PUT",
        "url": "http://localhost:8080/cqf-ruler/baseDstu3/Procedure/Procedure-117375"
      }
    },
    {
      "fullUrl": "http://localhost:8080/cqf-ruler/baseDstu3/Observation/Observation-117376",
      "resource": {
        "resourceType": "Observation",
        "id": "Observation-117376",
        "meta": {
          "profile": [
            "http://hl7.org/fhir/us/hedis/StructureDefinition/hedis-observation"
          ]
        },
        "extension": [
          {
            "url": "http://mihin.org/extension/copyright",
            "valueString": "Copyright 2014-2018 Michigan Health Information Network Shared Services. Licensed under the Apache License, Version 2.0 (the 'License'); you may not use this file except in compliance with the License. You may obtain a copy of the License at  http://www.apache.org/licenses/LICENSE-2.0.  Unless required by applicable law or agreed to in writing, software distributed under the License is distributed on an 'AS IS' BASIS, WITHOUT WARRANTIES OR CONDITIONS OF ANY KIND, either express or implied. See the License for the specific language governing permissions and limitations under the License."
          }
        ],
        "identifier": [
          {
            "use": "official",
            "system": "mihin.org/fhir/sid/elementId",
            "value": "788b6a82-a28f-4e97-933c-15a62febce7c"
          }
        ],
        "status": "final",
        "category": [
          {
            "coding": [
              {
                "system": "http://hl7.org/fhir/observation-category",
                "code": "exam",
                "display": "Exam"
              }
            ]
          }
        ],
        "code": {
          "coding": [
            {
              "system": "http://snomed.info/sct",
              "code": "168749009",
              "display": "Mammography normal (finding)"
            }
          ]
        },
        "subject": {
          "reference": "Patient/Patient-416",
          "display": "Roberta Stacy McLean"
        },
        "context": {
          "reference": "Encounter/Encounter-3981",
          "display": "Ambulatory_Encounter"
        },
        "effectiveDateTime": "2019-03-04T00:00:00-05:00",
        "performer": [
          {
            "reference": "Practitioner/Practitioner-42",
            "display": "Miguel Jose Herring MD"
          }
        ],
        "valueString": "NEGATIVE"
      },
      "request": {
        "method": "PUT",
        "url": "http://localhost:8080/cqf-ruler/baseDstu3/Observation/Observation-117376"
      }
    },
    {
      "fullUrl": "http://localhost:8080/cqf-ruler/baseDstu3/Observation/Observation-117378",
      "resource": {
        "resourceType": "Observation",
        "id": "Observation-117378",
        "meta": {
          "profile": [
            "http://hl7.org/fhir/us/hedis/StructureDefinition/hedis-observation"
          ]
        },
        "extension": [
          {
            "url": "http://mihin.org/extension/copyright",
            "valueString": "Copyright 2014-2018 Michigan Health Information Network Shared Services. Licensed under the Apache License, Version 2.0 (the 'License'); you may not use this file except in compliance with the License. You may obtain a copy of the License at  http://www.apache.org/licenses/LICENSE-2.0.  Unless required by applicable law or agreed to in writing, software distributed under the License is distributed on an 'AS IS' BASIS, WITHOUT WARRANTIES OR CONDITIONS OF ANY KIND, either express or implied. See the License for the specific language governing permissions and limitations under the License."
          }
        ],
        "identifier": [
          {
            "use": "official",
            "system": "mihin.org/fhir/sid/elementId",
            "value": "2fd1a1a3-71cd-4045-bda6-41638fc39dac"
          }
        ],
        "status": "final",
        "category": [
          {
            "coding": [
              {
                "system": "http://hl7.org/fhir/observation-category",
                "code": "exam",
                "display": "Exam"
              }
            ]
          }
        ],
        "code": {
          "coding": [
            {
              "system": "http://snomed.info/sct",
              "code": "397145000",
              "display": "Mammography assessment (Category 5) - Highly suggestive of malignancy"
            }
          ]
        },
        "subject": {
          "reference": "Patient/Patient-416",
          "display": "Roberta Stacy McLean"
        },
        "context": {
          "reference": "Encounter/Encounter-3981",
          "display": "Ambulatory_Encounter"
        },
        "effectiveDateTime": "2019-03-04T00:00:00-05:00",
        "performer": [
          {
            "reference": "Practitioner/Practitioner-42",
            "display": "Miguel Jose Herring MD"
          }
        ],
        "valueString": "POSITIVE"
      },
      "request": {
        "method": "PUT",
        "url": "http://localhost:8080/cqf-ruler/baseDstu3/Observation/Observation-117378"
      }
    },
    {
      "fullUrl": "http://localhost:8080/cqf-ruler/baseDstu3/DiagnosticReport/DiagnosticReport-117379",
      "resource": {
        "resourceType": "DiagnosticReport",
        "id": "DiagnosticReport-117379",
        "meta": {
          "profile": [
            "http://hl7.org/fhir/us/hedis/StructureDefinition/hedis-diagnosticreport"
          ]
        },
        "extension": [
          {
            "url": "http://mihin.org/extension/copyright",
            "valueString": "Copyright 2014-2018 Michigan Health Information Network Shared Services. Licensed under the Apache License, Version 2.0 (the 'License'); you may not use this file except in compliance with the License. You may obtain a copy of the License at  http://www.apache.org/licenses/LICENSE-2.0.  Unless required by applicable law or agreed to in writing, software distributed under the License is distributed on an 'AS IS' BASIS, WITHOUT WARRANTIES OR CONDITIONS OF ANY KIND, either express or implied. See the License for the specific language governing permissions and limitations under the License."
          }
        ],
        "identifier": [
          {
            "use": "official",
            "system": "mihin.org/fhir/sid/elementId",
            "value": "a91a1e77-3d83-4d48-93bd-668782656dd6"
          }
        ],
        "status": "final",
        "code": {
          "coding": [
            {
              "system": "http://loinc.org",
              "code": "26291-5",
              "display": "Breast - right Mammogram limited"
            }
          ]
        },
        "subject": {
          "reference": "Patient/Patient-416",
          "display": "Roberta Stacy McLean"
        },
        "context": {
          "reference": "Encounter/Encounter-3981",
          "display": "Ambulatory_Encounter"
        },
        "effectivePeriod": {
          "start": "2019-03-04T00:00:00-05:00",
          "end": "2019-03-04T00:00:00-05:00"
        },
        "issued": "2019-03-04T00:00:00.000-05:00",
        "result": [
          {
            "reference": "Observation/Observation-117378",
            "display": "Breast_Cancer_Report_Observation_1"
          }
        ]
      },
      "request": {
        "method": "PUT",
        "url": "http://localhost:8080/cqf-ruler/baseDstu3/DiagnosticReport/DiagnosticReport-117379"
      }
    }
  ]
}