{
  "resourceType": "Bundle",
  "id": "Rene-Nathaniel-Horne-Jr-2636-Encounter-747",
  "type": "transaction",
  "entry": [
    {
      "fullUrl": "http://localhost:8080/cqf-ruler/baseDstu3/Encounter/Encounter-747",
      "resource": {
        "resourceType": "Encounter",
        "id": "Encounter-747",
        "meta": {
          "profile": [
            "http://hl7.org/fhir/us/hedis/StructureDefinition/hedis-encounter"
          ]
        },
        "extension": [
          {
            "url": "http://mihin.org/extension/copyright",
            "valueString": "Copyright 2014-2019 Michigan Health Information Network Shared Services. Licensed under the Apache License, Version 2.0 (the 'License'); you may not use this file except in compliance with the License. You may obtain a copy of the License at  http://www.apache.org/licenses/LICENSE-2.0.  Unless required by applicable law or agreed to in writing, software distributed under the License is distributed on an 'AS IS' BASIS, WITHOUT WARRANTIES OR CONDITIONS OF ANY KIND, either express or implied. See the License for the specific language governing permissions and limitations under the License."
          }
        ],
        "status": "finished",
        "class": {
          "system": "http://hl7.org/fhir/encounter-class",
          "code": "ambulatory",
          "display": "ambulatory"
        },
        "type": [
          {
            "coding": [
              {
                "system": "http://snomed.info/sct",
                "code": "428191000124101",
                "display": "Documentation of current medications"
              }
            ]
          }
        ],
        "subject": {
          "reference": "Patient/Patient-2636",
          "display": "Rene Nathaniel Horne Jr"
        },
        "participant": [
          {
            "period": {
              "start": "2018-05-27T00:00:00-04:00",
              "end": "2018-05-27T00:00:00-04:00"
            },
            "individual": {
              "reference": "Practitioner/Practitioner-2255",
              "display": "Tommy Kennedy Pearson MD"
            }
          }
        ],
        "period": {
          "start": "2018-05-27T00:00:00-04:00",
          "end": "2018-05-27T00:00:00-04:00"
        },
        "location": [
          {
            "location": {
              "reference": "Location/Location-168",
              "display": "St. Michael's Hospital"
            }
          }
        ],
        "serviceProvider": {
          "reference": "Organization/Organization-1014",
          "display": "St. Michael's Hospital"
        }
      },
      "request": {
        "method": "PUT",
        "url": "http://localhost:8080/cqf-ruler/baseDstu3/Encounter/Encounter-747"
      }
    },
    {
      "fullUrl": "http://localhost:8080/cqf-ruler/baseDstu3/Task/Task-82120",
      "resource": {
        "resourceType": "Task",
        "id": "Task-82120",
        "extension": [
          {
            "url": "http://mihin.org/extension/copyright",
            "valueString": "Copyright 2014-2019 Michigan Health Information Network Shared Services. Licensed under the Apache License, Version 2.0 (the 'License'); you may not use this file except in compliance with the License. You may obtain a copy of the License at  http://www.apache.org/licenses/LICENSE-2.0.  Unless required by applicable law or agreed to in writing, software distributed under the License is distributed on an 'AS IS' BASIS, WITHOUT WARRANTIES OR CONDITIONS OF ANY KIND, either express or implied. See the License for the specific language governing permissions and limitations under the License."
          }
        ],
        "status": "accepted",
        "intent": "original-order",
        "code": {
          "coding": [
            {
              "system": "SNOMED-CT",
              "code": "430193006",
              "display": "Medication Reconciliation (procedure)"
            }
          ]
        },
        "description": "Care_Plan_Start Task 1",
        "for": {
          "reference": "Patient/Patient-2636",
          "display": "Rene Nathaniel Horne Jr"
        },
        "context": {
          "reference": "Encounter/Encounter-747",
          "display": "Ambulatory_Encounter"
        },
        "executionPeriod": {
          "start": "2018-05-27T00:00:00-04:00",
          "end": "2018-05-27T00:00:00-04:00"
        },
        "authoredOn": "2018-05-27T00:00:00-04:00",
        "requester": {
          "agent": {
            "reference": "Practitioner/Practitioner-2255",
            "display": "Tommy Kennedy Pearson MD"
          },
          "onBehalfOf": {
            "reference": "Organization/Organization-1014",
            "display": "St. Michael's Hospital"
          }
        }
      },
      "request": {
        "method": "PUT",
        "url": "http://localhost:8080/cqf-ruler/baseDstu3/Task/Task-82120"
      }
    },
    {
      "fullUrl": "http://localhost:8080/cqf-ruler/baseDstu3/CarePlan/CarePlan-82119",
      "resource": {
        "resourceType": "CarePlan",
        "id": "CarePlan-82119",
        "extension": [
          {
            "url": "http://mihin.org/extension/copyright",
            "valueString": "Copyright 2014-2019 Michigan Health Information Network Shared Services. Licensed under the Apache License, Version 2.0 (the 'License'); you may not use this file except in compliance with the License. You may obtain a copy of the License at  http://www.apache.org/licenses/LICENSE-2.0.  Unless required by applicable law or agreed to in writing, software distributed under the License is distributed on an 'AS IS' BASIS, WITHOUT WARRANTIES OR CONDITIONS OF ANY KIND, either express or implied. See the License for the specific language governing permissions and limitations under the License."
          }
        ],
        "identifier": [
          {
            "use": "official",
            "system": "mihin.org/fhir/sid/elementId",
            "value": "b2ccb629-db91-48ae-a787-df777cbacd56"
          }
        ],
        "status": "active",
        "category": [
          {
            "coding": [
              {
                "system": "http://snomed.info/sct",
                "code": "430193006",
                "display": "Medication Reconciliation (procedure)"
              }
            ]
          }
        ],
        "subject": {
          "reference": "Patient/Patient-2636",
          "display": "Rene Nathaniel Horne Jr"
        },
        "context": {
          "reference": "Encounter/Encounter-747",
          "display": "Ambulatory_Encounter"
        },
        "period": {
          "start": "2018-05-27T00:00:00-04:00",
          "end": "2018-05-27T00:00:00-04:00"
        },
        "author": [
          {
            "reference": "Practitioner/Practitioner-2255",
            "display": "Tommy Kennedy Pearson MD"
          }
        ],
        "activity": [
          {
            "reference": {
              "reference": "Task/Task-82120",
              "display": "Care_Plan_Start Task 1"
            }
          }
        ]
      },
      "request": {
        "method": "PUT",
        "url": "http://localhost:8080/cqf-ruler/baseDstu3/CarePlan/CarePlan-82119"
      }
    },
    {
      "fullUrl": "http://localhost:8080/cqf-ruler/baseDstu3/Procedure/Procedure-82121",
      "resource": {
        "resourceType": "Procedure",
        "id": "Procedure-82121",
        "meta": {
          "profile": [
            "http://hl7.org/fhir/us/hedis/StructureDefinition/hedis-procedure"
          ]
        },
        "extension": [
          {
            "url": "http://mihin.org/extension/copyright",
            "valueString": "Copyright 2014-2019 Michigan Health Information Network Shared Services. Licensed under the Apache License, Version 2.0 (the 'License'); you may not use this file except in compliance with the License. You may obtain a copy of the License at  http://www.apache.org/licenses/LICENSE-2.0.  Unless required by applicable law or agreed to in writing, software distributed under the License is distributed on an 'AS IS' BASIS, WITHOUT WARRANTIES OR CONDITIONS OF ANY KIND, either express or implied. See the License for the specific language governing permissions and limitations under the License."
          }
        ],
        "identifier": [
          {
            "use": "official",
            "system": "mihin.org/fhir/sid/elementId",
            "value": "ad7b2165-0c0e-45cc-a155-a835d55b7daa"
          }
        ],
        "status": "completed",
        "code": {
          "coding": [
            {
              "system": "http://snomed.info/sct",
              "code": "430193006",
              "display": "Medication Reconciliation (procedure)"
            }
          ]
        },
        "subject": {
          "reference": "Patient/Patient-2636",
          "display": "Rene Nathaniel Horne Jr"
        },
        "context": {
          "reference": "Encounter/Encounter-747",
          "display": "Ambulatory_Encounter"
        },
        "performedPeriod": {
          "start": "2018-05-27T00:00:00-04:00",
          "end": "2018-05-27T00:00:00-04:00"
        },
        "performer": [
          {
            "actor": {
              "reference": "Practitioner/Practitioner-2255",
              "display": "Tommy Kennedy Pearson MD"
            }
          }
        ],
        "location": {
          "reference": "Location/Location-168",
          "display": "St. Michael's Hospital"
        }
      },
      "request": {
        "method": "PUT",
        "url": "http://localhost:8080/cqf-ruler/baseDstu3/Procedure/Procedure-82121"
      }
    }
  ]
}