{
  "resourceType": "Bundle",
  "id": "Joy-Patricia-Koch-2669-Encounter-661",
  "type": "transaction",
  "entry": [
    {
      "fullUrl": "http://localhost:8080/cqf-ruler/baseDstu3/Encounter/Encounter-661",
      "resource": {
        "resourceType": "Encounter",
        "id": "Encounter-661",
        "meta": {
          "profile": [
            "http://hl7.org/fhir/us/hedis/StructureDefinition/hedis-encounter"
          ]
        },
        "extension": [
          {
            "url": "http://mihin.org/extension/copyright",
            "valueString": "Copyright 2014-2019 Michigan Health Information Network Shared Services. Licensed under the Apache License, Version 2.0 (the 'License'); you may not use this file except in compliance with the License. You may obtain a copy of the License at  http://www.apache.org/licenses/LICENSE-2.0.  Unless required by applicable law or agreed to in writing, software distributed under the License is distributed on an 'AS IS' BASIS, WITHOUT WARRANTIES OR CONDITIONS OF ANY KIND, either express or implied. See the License for the specific language governing permissions and limitations under the License."
          }
        ],
        "status": "finished",
        "class": {
          "system": "http://hl7.org/fhir/encounter-class",
          "code": "ambulatory",
          "display": "ambulatory"
        },
        "type": [
          {
            "coding": [
              {
                "system": "http://snomed.info/sct",
                "code": "185467006",
                "display": "Combined Office Visits"
              }
            ]
          }
        ],
        "subject": {
          "reference": "Patient/Patient-2669",
          "display": "Joy Patricia Koch"
        },
        "participant": [
          {
            "period": {
              "start": "2018-02-04T00:00:00-05:00",
              "end": "2018-02-04T00:00:00-05:00"
            },
            "individual": {
              "reference": "Practitioner/Practitioner-2296",
              "display": "Tamara Frances Maxwell MD"
            }
          }
        ],
        "period": {
          "start": "2018-02-04T00:00:00-05:00",
          "end": "2018-02-04T00:00:00-05:00"
        },
        "location": [
          {
            "location": {
              "reference": "Location/Location-225",
              "display": "Taylor Methodist Hospital"
            }
          }
        ],
        "serviceProvider": {
          "reference": "Organization/Organization-1024",
          "display": "Taylor Methodist Hospital"
        }
      },
      "request": {
        "method": "PUT",
        "url": "http://localhost:8080/cqf-ruler/baseDstu3/Encounter/Encounter-661"
      }
    },
    {
      "fullUrl": "http://localhost:8080/cqf-ruler/baseDstu3/Procedure/Procedure-72197",
      "resource": {
        "resourceType": "Procedure",
        "id": "Procedure-72197",
        "meta": {
          "profile": [
            "http://hl7.org/fhir/us/hedis/StructureDefinition/hedis-procedure"
          ]
        },
        "extension": [
          {
            "url": "http://mihin.org/extension/copyright",
            "valueString": "Copyright 2014-2019 Michigan Health Information Network Shared Services. Licensed under the Apache License, Version 2.0 (the 'License'); you may not use this file except in compliance with the License. You may obtain a copy of the License at  http://www.apache.org/licenses/LICENSE-2.0.  Unless required by applicable law or agreed to in writing, software distributed under the License is distributed on an 'AS IS' BASIS, WITHOUT WARRANTIES OR CONDITIONS OF ANY KIND, either express or implied. See the License for the specific language governing permissions and limitations under the License."
          }
        ],
        "identifier": [
          {
            "use": "official",
            "system": "mihin.org/fhir/sid/elementId",
            "value": "05c36233-e8f7-430f-ab2a-cb13e37dbad8"
          }
        ],
        "status": "completed",
        "code": {
          "coding": [
            {
              "system": "http://www.ama-assn.org/go/cpt",
              "code": "77063"
            }
          ]
        },
        "subject": {
          "reference": "Patient/Patient-2669",
          "display": "Joy Patricia Koch"
        },
        "context": {
          "reference": "Encounter/Encounter-661",
          "display": "Ambulatory_Encounter"
        },
        "performedPeriod": {
          "start": "2018-02-04T00:00:00-05:00",
          "end": "2018-02-04T00:00:00-05:00"
        },
        "performer": [
          {
            "actor": {
              "reference": "Practitioner/Practitioner-2296",
              "display": "Tamara Frances Maxwell MD"
            }
          }
        ],
        "location": {
          "reference": "Location/Location-225",
          "display": "Taylor Methodist Hospital"
        }
      },
      "request": {
        "method": "PUT",
        "url": "http://localhost:8080/cqf-ruler/baseDstu3/Procedure/Procedure-72197"
      }
    },
    {
      "fullUrl": "http://localhost:8080/cqf-ruler/baseDstu3/Observation/Observation-72198",
      "resource": {
        "resourceType": "Observation",
        "id": "Observation-72198",
        "meta": {
          "profile": [
            "http://hl7.org/fhir/us/hedis/StructureDefinition/hedis-observation"
          ]
        },
        "extension": [
          {
            "url": "http://mihin.org/extension/copyright",
            "valueString": "Copyright 2014-2019 Michigan Health Information Network Shared Services. Licensed under the Apache License, Version 2.0 (the 'License'); you may not use this file except in compliance with the License. You may obtain a copy of the License at  http://www.apache.org/licenses/LICENSE-2.0.  Unless required by applicable law or agreed to in writing, software distributed under the License is distributed on an 'AS IS' BASIS, WITHOUT WARRANTIES OR CONDITIONS OF ANY KIND, either express or implied. See the License for the specific language governing permissions and limitations under the License."
          }
        ],
        "identifier": [
          {
            "use": "official",
            "system": "mihin.org/fhir/sid/elementId",
            "value": "4710cb9b-158e-4d59-92b0-9328d1334c7d"
          }
        ],
        "status": "final",
        "category": [
          {
            "coding": [
              {
                "system": "http://hl7.org/fhir/observation-category",
                "code": "exam",
                "display": "Exam"
              }
            ]
          }
        ],
        "code": {
          "coding": [
            {
              "system": "http://snomed.info/sct",
              "code": "168749009",
              "display": "Mammography normal (finding)"
            }
          ]
        },
        "subject": {
          "reference": "Patient/Patient-2669",
          "display": "Joy Patricia Koch"
        },
        "context": {
          "reference": "Encounter/Encounter-661",
          "display": "Ambulatory_Encounter"
        },
        "effectiveDateTime": "2018-02-04T00:00:00-05:00",
        "performer": [
          {
            "reference": "Practitioner/Practitioner-2296",
            "display": "Tamara Frances Maxwell MD"
          }
        ],
        "valueString": "NEGATIVE"
      },
      "request": {
        "method": "PUT",
        "url": "http://localhost:8080/cqf-ruler/baseDstu3/Observation/Observation-72198"
      }
    },
    {
      "fullUrl": "http://localhost:8080/cqf-ruler/baseDstu3/Observation/Observation-72199",
      "resource": {
        "resourceType": "Observation",
        "id": "Observation-72199",
        "meta": {
          "profile": [
            "http://hl7.org/fhir/us/hedis/StructureDefinition/hedis-observation"
          ]
        },
        "extension": [
          {
            "url": "http://mihin.org/extension/copyright",
            "valueString": "Copyright 2014-2019 Michigan Health Information Network Shared Services. Licensed under the Apache License, Version 2.0 (the 'License'); you may not use this file except in compliance with the License. You may obtain a copy of the License at  http://www.apache.org/licenses/LICENSE-2.0.  Unless required by applicable law or agreed to in writing, software distributed under the License is distributed on an 'AS IS' BASIS, WITHOUT WARRANTIES OR CONDITIONS OF ANY KIND, either express or implied. See the License for the specific language governing permissions and limitations under the License."
          }
        ],
        "identifier": [
          {
            "use": "official",
            "system": "mihin.org/fhir/sid/elementId",
            "value": "ab2a4ece-b6e2-416d-8d9f-284169ad2578"
          }
        ],
        "status": "final",
        "category": [
          {
            "coding": [
              {
                "system": "http://hl7.org/fhir/observation-category",
                "code": "exam",
                "display": "Exam"
              }
            ]
          }
        ],
        "code": {
          "coding": [
            {
              "system": "http://snomed.info/sct",
              "code": "397145000",
              "display": "Mammography assessment (Category 5) - Highly suggestive of malignancy"
            }
          ]
        },
        "subject": {
          "reference": "Patient/Patient-2669",
          "display": "Joy Patricia Koch"
        },
        "context": {
          "reference": "Encounter/Encounter-661",
          "display": "Ambulatory_Encounter"
        },
        "effectiveDateTime": "2018-02-04T00:00:00-05:00",
        "performer": [
          {
            "reference": "Practitioner/Practitioner-2296",
            "display": "Tamara Frances Maxwell MD"
          }
        ],
        "valueString": "POSITIVE"
      },
      "request": {
        "method": "PUT",
        "url": "http://localhost:8080/cqf-ruler/baseDstu3/Observation/Observation-72199"
      }
    },
    {
      "fullUrl": "http://localhost:8080/cqf-ruler/baseDstu3/DiagnosticReport/DiagnosticReport-72200",
      "resource": {
        "resourceType": "DiagnosticReport",
        "id": "DiagnosticReport-72200",
        "meta": {
          "profile": [
            "http://hl7.org/fhir/us/hedis/StructureDefinition/hedis-diagnosticreport"
          ]
        },
        "extension": [
          {
            "url": "http://mihin.org/extension/copyright",
            "valueString": "Copyright 2014-2019 Michigan Health Information Network Shared Services. Licensed under the Apache License, Version 2.0 (the 'License'); you may not use this file except in compliance with the License. You may obtain a copy of the License at  http://www.apache.org/licenses/LICENSE-2.0.  Unless required by applicable law or agreed to in writing, software distributed under the License is distributed on an 'AS IS' BASIS, WITHOUT WARRANTIES OR CONDITIONS OF ANY KIND, either express or implied. See the License for the specific language governing permissions and limitations under the License."
          }
        ],
        "identifier": [
          {
            "use": "official",
            "system": "mihin.org/fhir/sid/elementId",
            "value": "643de1fb-226f-4217-b838-333245974ee2"
          }
        ],
        "status": "final",
        "code": {
          "coding": [
            {
              "system": "http://loinc.org",
              "code": "38090-7",
              "display": "Breast - bilateral Mammogram W air"
            }
          ]
        },
        "subject": {
          "reference": "Patient/Patient-2669",
          "display": "Joy Patricia Koch"
        },
        "context": {
          "reference": "Encounter/Encounter-661",
          "display": "Ambulatory_Encounter"
        },
        "effectivePeriod": {
          "start": "2018-02-04T00:00:00-05:00",
          "end": "2018-02-04T00:00:00-05:00"
        },
        "issued": "2018-02-04T00:00:00.000-05:00",
        "performer": [
          {
            "actor": {
              "reference": "Practitioner/Practitioner-2296",
              "display": "Tamara Frances Maxwell MD"
            }
          }
        ],
        "result": [
          {
            "reference": "Observation/Observation-72199",
            "display": "Breast_Cancer_Report_Observation_1"
          }
        ]
      },
      "request": {
        "method": "PUT",
        "url": "http://localhost:8080/cqf-ruler/baseDstu3/DiagnosticReport/DiagnosticReport-72200"
      }
    }
  ]
}