{
    "resourceType": "Bundle",
    "entry": [
      {
        "resource": {
          "resourceType": "Library",
          "id": "adult-outpatient-encounters-FHIR3",
          "version": "1.1.000",
          "name": "AdultOutpatientEncounters_FHIR3",
          "status": "active",
          "experimental": true,
          "type": {
            "coding": [
              {
                "system": "http://hl7.org/fhir/codesystem-library-type",
                "code": "logic-library"
              }
            ]
          },
          "relatedArtifact": [
            {
              "type": "depends-on",
              "resource": {
                "reference": "Library/fhir-helpers"
              }
            }
          ],
          "dataRequirement": [
            {
              "type": "Encounter",
              "codeFilter": [
                {
                  "path": "type",
                  "valueSetString": "http://cts.nlm.nih.gov/fhir/ValueSet/2.16.840.1.113883.3.464.1003.101.12.1001"
                }
              ]
            },
            {
              "type": "Encounter",
              "codeFilter": [
                {
                  "path": "type",
                  "valueSetString": "http://cts.nlm.nih.gov/fhir/ValueSet/2.16.840.1.113883.3.526.3.1240"
                }
              ]
            },
            {
              "type": "Encounter",
              "codeFilter": [
                {
                  "path": "type",
                  "valueSetString": "http://cts.nlm.nih.gov/fhir/ValueSet/2.16.840.1.113883.3.464.1003.101.12.1025"
                }
              ]
            },
            {
              "type": "Encounter",
              "codeFilter": [
                {
                  "path": "type",
                  "valueSetString": "http://cts.nlm.nih.gov/fhir/ValueSet/2.16.840.1.113883.3.464.1003.101.12.1023"
                }
              ]
            },
            {
              "type": "Encounter",
              "codeFilter": [
                {
                  "path": "type",
                  "valueSetString": "http://cts.nlm.nih.gov/fhir/ValueSet/2.16.840.1.113883.3.464.1003.101.12.1016"
                }
              ]
            }
          ],
          "content": [
            {
              "contentType": "application/elm+xml",
              "data": ""
            },
            {
              "contentType": "text/cql",
              "data": ""
            }
          ]
        },
        "request": {
          "method": "PUT",
          "url": "Library/adult-outpatient-encounters-FHIR3"
        }
      },
      {
        "resource": {
          "resourceType": "Library",
          "id": "advanced-illness-and-frailty-FHIR3",
          "version": "4.0.000",
          "name": "AdvancedIllnessandFrailtyExclusion_FHIR3",
          "status": "active",
          "experimental": true,
          "type": {
            "coding": [
              {
                "system": "http://hl7.org/fhir/codesystem-library-type",
                "code": "logic-library"
              }
            ]
          },
          "relatedArtifact": [
            {
              "type": "depends-on",
              "resource": {
                "reference": "Library/fhir-helpers"
              }
            },
            {
              "type": "depends-on",
              "resource": {
                "reference": "Library/mat-global-common-functions-FHIR3"
              }
            }
          ],
          "dataRequirement": [
            {
              "type": "Encounter",
              "codeFilter": [
                {
                  "path": "type",
                  "valueSetString": "http://cts.nlm.nih.gov/fhir/ValueSet/2.16.840.1.113883.3.666.5.307"
                }
              ]
            },
            {
              "type": "Encounter",
              "codeFilter": [
                {
                  "path": "type",
                  "valueSetString": "http://cts.nlm.nih.gov/fhir/ValueSet/2.16.840.1.113883.3.117.1.7.1.292"
                }
              ]
            },
            {
              "type": "Condition",
              "codeFilter": [
                {
                  "path": "id"
                }
              ]
            },
            {
              "type": "Condition",
              "codeFilter": [
                {
                  "path": "id"
                }
              ]
            },
            {
              "type": "Location",
              "codeFilter": [
                {
                  "path": "id"
                }
              ]
            },
            {
              "type": "Encounter",
              "codeFilter": [
                {
                  "path": "type",
                  "valueSetString": "http://cts.nlm.nih.gov/fhir/ValueSet/2.16.840.1.113762.1.4.1111.143"
                }
              ]
            },
            {
              "type": "Encounter",
              "codeFilter": [
                {
                  "path": "type",
                  "valueSetString": "http://cts.nlm.nih.gov/fhir/ValueSet/2.16.840.1.113883.3.117.1.7.1.292"
                }
              ]
            },
            {
              "type": "Condition",
              "codeFilter": [
                {
                  "path": "code",
                  "valueSetString": "urn:oid:2.16.840.1.113883.3.464.1003.110.12.1082"
                }
              ]
            },
            {
              "type": "Encounter",
              "codeFilter": [
                {
                  "path": "type",
                  "valueSetString": "urn:oid:2.16.840.1.113883.3.464.1003.101.12.1087"
                }
              ]
            },
            {
              "type": "Encounter",
              "codeFilter": [
                {
                  "path": "type",
                  "valueSetString": "urn:oid:2.16.840.1.113883.3.464.1003.101.12.1086"
                }
              ]
            },
            {
              "type": "Encounter",
              "codeFilter": [
                {
                  "path": "type",
                  "valueSetString": "http://cts.nlm.nih.gov/fhir/ValueSet/2.16.840.1.113883.3.464.1003.101.12.1085"
                }
              ]
            },
            {
              "type": "Encounter",
              "codeFilter": [
                {
                  "path": "type",
                  "valueSetString": "urn:oid:2.16.840.1.113883.3.464.1003.101.12.1084"
                }
              ]
            },
            {
              "type": "Encounter",
              "codeFilter": [
                {
                  "path": "type",
                  "valueSetString": "urn:oid:2.16.840.1.113883.3.464.1003.101.12.1014"
                }
              ]
            },
            {
              "type": "Encounter",
              "codeFilter": [
                {
                  "path": "type",
                  "valueSetString": "urn:oid:2.16.840.1.113883.3.464.1003.101.12.1012"
                }
              ]
            },
            {
              "type": "Encounter",
              "codeFilter": [
                {
                  "path": "type",
                  "valueSetString": "urn:oid:2.16.840.1.113883.3.464.1003.101.12.1083"
                }
              ]
            },
            {
              "type": "MedicationDispense",
              "codeFilter": [
                {
                  "path": "medication",
                  "valueSetString": "urn:oid:2.16.840.1.113883.3.464.1003.196.12.1510"
                }
              ]
            },
            {
              "type": "DeviceRequest",
              "codeFilter": [
                {
                  "path": "code",
                  "valueSetString": "urn:oid:2.16.840.1.113883.3.464.1003.118.12.1300"
                }
              ]
            },
            {
              "type": "DeviceUseStatement"
            },
            {
              "type": "Condition",
              "codeFilter": [
                {
                  "path": "code",
                  "valueSetString": "urn:oid:2.16.840.1.113883.3.464.1003.113.12.1074"
                }
              ]
            },
            {
              "type": "Encounter",
              "codeFilter": [
                {
                  "path": "type",
                  "valueSetString": "urn:oid:2.16.840.1.113883.3.464.1003.101.12.1088"
                }
              ]
            },
            {
              "type": "Observation",
              "codeFilter": [
                {
                  "path": "code",
                  "valueSetString": "urn:oid:2.16.840.1.113883.3.464.1003.113.12.1075"
                }
              ]
            }
          ],
          "content": [
            {
              "contentType": "application/elm+xml",
              "data": ""
            },
            {
              "contentType": "text/cql",
              "data": ""
            }
          ]
        },
        "request": {
          "method": "PUT",
          "url": "Library/advanced-illness-and-frailty-FHIR3"
        }
      },
      {
        "resource": {
          "resourceType": "Library",
          "id": "fhir-helpers",
          "version": "3.0.0",
          "name": "FHIRHelpers",
          "status": "active",
          "experimental": true,
          "type": {
            "coding": [
              {
                "system": "http://hl7.org/fhir/codesystem-library-type",
                "code": "logic-library"
              }
            ]
          },
          "content": [
            {
              "contentType": "application/elm+xml",
              "data": ""
            },
            {
              "contentType": "text/cql",
              "data": ""
            }
          ]
        },
        "request": {
          "method": "PUT",
          "url": "Library/fhir-helpers"
        }
      },
      {
        "resource": {
          "resourceType": "Library",
          "id": "hospice-FHIR3",
          "version": "1.0.000",
          "name": "Hospice_FHIR3",
          "status": "active",
          "experimental": true,
          "type": {
            "coding": [
              {
                "system": "http://hl7.org/fhir/codesystem-library-type",
                "code": "logic-library"
              }
            ]
          },
          "relatedArtifact": [
            {
              "type": "depends-on",
              "resource": {
                "reference": "Library/mat-global-common-functions-FHIR3"
              }
            },
            {
              "type": "depends-on",
              "resource": {
                "reference": "Library/fhir-helpers"
              }
            }
          ],
          "dataRequirement": [
            {
              "type": "Encounter",
              "codeFilter": [
                {
                  "path": "type",
                  "valueSetString": "http://cts.nlm.nih.gov/fhir/ValueSet/2.16.840.1.113883.3.666.5.307"
                }
              ]
            },
            {
              "type": "Encounter",
              "codeFilter": [
                {
                  "path": "type",
                  "valueSetString": "http://cts.nlm.nih.gov/fhir/ValueSet/2.16.840.1.113883.3.117.1.7.1.292"
                }
              ]
            },
            {
              "type": "Condition",
              "codeFilter": [
                {
                  "path": "id"
                }
              ]
            },
            {
              "type": "Condition",
              "codeFilter": [
                {
                  "path": "id"
                }
              ]
            },
            {
              "type": "Location",
              "codeFilter": [
                {
                  "path": "id"
                }
              ]
            },
            {
              "type": "Encounter",
              "codeFilter": [
                {
                  "path": "type",
                  "valueSetString": "http://cts.nlm.nih.gov/fhir/ValueSet/2.16.840.1.113762.1.4.1111.143"
                }
              ]
            },
            {
              "type": "Encounter",
              "codeFilter": [
                {
                  "path": "type",
                  "valueSetString": "http://cts.nlm.nih.gov/fhir/ValueSet/2.16.840.1.113883.3.117.1.7.1.292"
                }
              ]
            },
            {
              "type": "Encounter",
              "codeFilter": [
                {
                  "path": "type",
                  "valueSetString": "http://cts.nlm.nih.gov/fhir/ValueSet/2.16.840.1.113883.3.666.5.307"
                }
              ]
            },
            {
              "type": "ProcedureRequest",
              "codeFilter": [
                {
                  "path": "code",
                  "valueSetString": "http://cts.nlm.nih.gov/fhir/ValueSet/2.16.840.1.113762.1.4.1108.15"
                }
              ]
            },
            {
              "type": "Procedure",
              "codeFilter": [
                {
                  "path": "code",
                  "valueSetString": "http://cts.nlm.nih.gov/fhir/ValueSet/2.16.840.1.113762.1.4.1108.15"
                }
              ]
            }
          ],
          "content": [
            {
              "contentType": "application/elm+xml",
              "data": ""
            },
            {
              "contentType": "text/cql",
              "data": ""
            }
          ]
        },
        "request": {
          "method": "PUT",
          "url": "Library/hospice-FHIR3"
        }
      },
      {
        "resource": {
          "resourceType": "Library",
          "id": "mat-global-common-functions-FHIR3",
          "version": "2.0.000",
          "name": "MATGlobalCommonFunctions_FHIR3",
          "status": "active",
          "experimental": true,
          "type": {
            "coding": [
              {
                "system": "http://hl7.org/fhir/codesystem-library-type",
                "code": "logic-library"
              }
            ]
          },
          "relatedArtifact": [
            {
              "type": "depends-on",
              "resource": {
                "reference": "Library/fhir-helpers"
              }
            }
          ],
          "dataRequirement": [
            {
              "type": "Encounter",
              "codeFilter": [
                {
                  "path": "type",
                  "valueSetString": "http://cts.nlm.nih.gov/fhir/ValueSet/2.16.840.1.113883.3.666.5.307"
                }
              ]
            },
            {
              "type": "Encounter",
              "codeFilter": [
                {
                  "path": "type",
                  "valueSetString": "http://cts.nlm.nih.gov/fhir/ValueSet/2.16.840.1.113883.3.117.1.7.1.292"
                }
              ]
            },
            {
              "type": "Condition",
              "codeFilter": [
                {
                  "path": "id"
                }
              ]
            },
            {
              "type": "Condition",
              "codeFilter": [
                {
                  "path": "id"
                }
              ]
            },
            {
              "type": "Location",
              "codeFilter": [
                {
                  "path": "id"
                }
              ]
            },
            {
              "type": "Encounter",
              "codeFilter": [
                {
                  "path": "type",
                  "valueSetString": "http://cts.nlm.nih.gov/fhir/ValueSet/2.16.840.1.113762.1.4.1111.143"
                }
              ]
            },
            {
              "type": "Encounter",
              "codeFilter": [
                {
                  "path": "type",
                  "valueSetString": "http://cts.nlm.nih.gov/fhir/ValueSet/2.16.840.1.113883.3.117.1.7.1.292"
                }
              ]
            }
          ],
          "content": [
            {
              "contentType": "application/elm+xml",
              "data": ""
            },
            {
              "contentType": "text/cql",
              "data": ""
            }
          ]
        },
        "request": {
          "method": "PUT",
          "url": "Library/mat-global-common-functions-FHIR3"
        }
      },
      {
        "resource": {
          "resourceType": "Library",
          "id": "supplemental-data-elements-FHIR3",
          "version": "1.0.0",
          "name": "SupplementalDataElements_FHIR3",
          "status": "active",
          "experimental": true,
          "type": {
            "coding": [
              {
                "system": "http://hl7.org/fhir/codesystem-library-type",
                "code": "logic-library"
              }
            ]
          },
          "relatedArtifact": [
            {
              "type": "depends-on",
              "resource": {
                "reference": "Library/fhir-helpers"
              }
            }
          ],
          "dataRequirement": [
            {
              "type": "Coverage",
              "codeFilter": [
                {
                  "path": "type",
                  "valueSetString": "http://cts.nlm.nih.gov/fhir/ValueSet/2.16.840.1.114222.4.11.3591"
                }
              ]
            }
          ],
          "content": [
            {
              "contentType": "application/elm+xml",
              "data": ""
            },
            {
              "contentType": "text/cql",
              "data": ""
            }
          ]
        },
        "request": {
          "method": "PUT",
          "url": "Library/supplemental-data-elements-FHIR3"
        }
      },
      {
        "resource": {
            "resourceType": "Library",
            "id": "EXM165-FHIR3",
            "version": "8.5.000",
            "name": "EXM165_FHIR3",
            "status": "active",
            "experimental": true,
            "type": {
              "coding": [
                {
                  "system": "http://hl7.org/fhir/codesystem-library-type",
                  "code": "logic-library"
                }
              ]
            },
            "relatedArtifact": [
              {
                "type": "depends-on",
                "resource": {
                  "reference": "Library/fhir-helpers"
                }
              },
              {
                "type": "depends-on",
                "resource": {
                  "reference": "Library/mat-global-common-functions-FHIR3"
                }
              },
              {
                "type": "depends-on",
                "resource": {
                  "reference": "Library/adult-outpatient-encounters-FHIR3"
                }
              },
              {
                "type": "depends-on",
                "resource": {
                  "reference": "Library/supplemental-data-elements-FHIR3"
                }
              },
              {
                "type": "depends-on",
                "resource": {
                  "reference": "Library/hospice-FHIR3"
                }
              },
              {
                "type": "depends-on",
                "resource": {
                  "reference": "Library/advanced-illness-and-frailty-FHIR3"
                }
              }
            ],
            "dataRequirement": [
              {
                "type": "Encounter",
                "codeFilter": [
                  {
                    "path": "type",
                    "valueSetString": "http://cts.nlm.nih.gov/fhir/ValueSet/2.16.840.1.113883.3.666.5.307"
                  }
                ]
              },
              {
                "type": "Encounter",
                "codeFilter": [
                  {
                    "path": "type",
                    "valueSetString": "http://cts.nlm.nih.gov/fhir/ValueSet/2.16.840.1.113883.3.117.1.7.1.292"
                  }
                ]
              },
              {
                "type": "Condition",
                "codeFilter": [
                  {
                    "path": "id"
                  }
                ]
              },
              {
                "type": "Condition",
                "codeFilter": [
                  {
                    "path": "id"
                  }
                ]
              },
              {
                "type": "Location",
                "codeFilter": [
                  {
                    "path": "id"
                  }
                ]
              },
              {
                "type": "Encounter",
                "codeFilter": [
                  {
                    "path": "type",
                    "valueSetString": "http://cts.nlm.nih.gov/fhir/ValueSet/2.16.840.1.113762.1.4.1111.143"
                  }
                ]
              },
              {
                "type": "Encounter",
                "codeFilter": [
                  {
                    "path": "type",
                    "valueSetString": "http://cts.nlm.nih.gov/fhir/ValueSet/2.16.840.1.113883.3.117.1.7.1.292"
                  }
                ]
              },
              {
                "type": "Encounter",
                "codeFilter": [
                  {
                    "path": "type",
                    "valueSetString": "http://cts.nlm.nih.gov/fhir/ValueSet/2.16.840.1.113883.3.464.1003.101.12.1001"
                  }
                ]
              },
              {
                "type": "Encounter",
                "codeFilter": [
                  {
                    "path": "type",
                    "valueSetString": "http://cts.nlm.nih.gov/fhir/ValueSet/2.16.840.1.113883.3.526.3.1240"
                  }
                ]
              },
              {
                "type": "Encounter",
                "codeFilter": [
                  {
                    "path": "type",
                    "valueSetString": "http://cts.nlm.nih.gov/fhir/ValueSet/2.16.840.1.113883.3.464.1003.101.12.1025"
                  }
                ]
              },
              {
                "type": "Encounter",
                "codeFilter": [
                  {
                    "path": "type",
                    "valueSetString": "http://cts.nlm.nih.gov/fhir/ValueSet/2.16.840.1.113883.3.464.1003.101.12.1023"
                  }
                ]
              },
              {
                "type": "Encounter",
                "codeFilter": [
                  {
                    "path": "type",
                    "valueSetString": "http://cts.nlm.nih.gov/fhir/ValueSet/2.16.840.1.113883.3.464.1003.101.12.1016"
                  }
                ]
              },
              {
                "type": "Coverage",
                "codeFilter": [
                  {
                    "path": "type",
                    "valueSetString": "http://cts.nlm.nih.gov/fhir/ValueSet/2.16.840.1.114222.4.11.3591"
                  }
                ]
              },
              {
                "type": "Encounter",
                "codeFilter": [
                  {
                    "path": "type",
                    "valueSetString": "http://cts.nlm.nih.gov/fhir/ValueSet/2.16.840.1.113883.3.666.5.307"
                  }
                ]
              },
              {
                "type": "Encounter",
                "codeFilter": [
                  {
                    "path": "type",
                    "valueSetString": "http://cts.nlm.nih.gov/fhir/ValueSet/2.16.840.1.113883.3.117.1.7.1.292"
                  }
                ]
              },
              {
                "type": "Condition",
                "codeFilter": [
                  {
                    "path": "id"
                  }
                ]
              },
              {
                "type": "Condition",
                "codeFilter": [
                  {
                    "path": "id"
                  }
                ]
              },
              {
                "type": "Location",
                "codeFilter": [
                  {
                    "path": "id"
                  }
                ]
              },
              {
                "type": "Encounter",
                "codeFilter": [
                  {
                    "path": "type",
                    "valueSetString": "http://cts.nlm.nih.gov/fhir/ValueSet/2.16.840.1.113762.1.4.1111.143"
                  }
                ]
              },
              {
                "type": "Encounter",
                "codeFilter": [
                  {
                    "path": "type",
                    "valueSetString": "http://cts.nlm.nih.gov/fhir/ValueSet/2.16.840.1.113883.3.117.1.7.1.292"
                  }
                ]
              },
              {
                "type": "Encounter",
                "codeFilter": [
                  {
                    "path": "type",
                    "valueSetString": "http://cts.nlm.nih.gov/fhir/ValueSet/2.16.840.1.113883.3.666.5.307"
                  }
                ]
              },
              {
                "type": "ProcedureRequest",
                "codeFilter": [
                  {
                    "path": "code",
                    "valueSetString": "http://cts.nlm.nih.gov/fhir/ValueSet/2.16.840.1.113762.1.4.1108.15"
                  }
                ]
              },
              {
                "type": "Procedure",
                "codeFilter": [
                  {
                    "path": "code",
                    "valueSetString": "http://cts.nlm.nih.gov/fhir/ValueSet/2.16.840.1.113762.1.4.1108.15"
                  }
                ]
              },
              {
                "type": "Encounter",
                "codeFilter": [
                  {
                    "path": "type",
                    "valueSetString": "http://cts.nlm.nih.gov/fhir/ValueSet/2.16.840.1.113883.3.666.5.307"
                  }
                ]
              },
              {
                "type": "Encounter",
                "codeFilter": [
                  {
                    "path": "type",
                    "valueSetString": "http://cts.nlm.nih.gov/fhir/ValueSet/2.16.840.1.113883.3.117.1.7.1.292"
                  }
                ]
              },
              {
                "type": "Condition",
                "codeFilter": [
                  {
                    "path": "id"
                  }
                ]
              },
              {
                "type": "Condition",
                "codeFilter": [
                  {
                    "path": "id"
                  }
                ]
              },
              {
                "type": "Location",
                "codeFilter": [
                  {
                    "path": "id"
                  }
                ]
              },
              {
                "type": "Encounter",
                "codeFilter": [
                  {
                    "path": "type",
                    "valueSetString": "http://cts.nlm.nih.gov/fhir/ValueSet/2.16.840.1.113762.1.4.1111.143"
                  }
                ]
              },
              {
                "type": "Encounter",
                "codeFilter": [
                  {
                    "path": "type",
                    "valueSetString": "http://cts.nlm.nih.gov/fhir/ValueSet/2.16.840.1.113883.3.117.1.7.1.292"
                  }
                ]
              },
              {
                "type": "Condition",
                "codeFilter": [
                  {
                    "path": "code",
                    "valueSetString": "urn:oid:2.16.840.1.113883.3.464.1003.110.12.1082"
                  }
                ]
              },
              {
                "type": "Encounter",
                "codeFilter": [
                  {
                    "path": "type",
                    "valueSetString": "urn:oid:2.16.840.1.113883.3.464.1003.101.12.1087"
                  }
                ]
              },
              {
                "type": "Encounter",
                "codeFilter": [
                  {
                    "path": "type",
                    "valueSetString": "urn:oid:2.16.840.1.113883.3.464.1003.101.12.1086"
                  }
                ]
              },
              {
                "type": "Encounter",
                "codeFilter": [
                  {
                    "path": "type",
                    "valueSetString": "http://cts.nlm.nih.gov/fhir/ValueSet/2.16.840.1.113883.3.464.1003.101.12.1085"
                  }
                ]
              },
              {
                "type": "Encounter",
                "codeFilter": [
                  {
                    "path": "type",
                    "valueSetString": "urn:oid:2.16.840.1.113883.3.464.1003.101.12.1084"
                  }
                ]
              },
              {
                "type": "Encounter",
                "codeFilter": [
                  {
                    "path": "type",
                    "valueSetString": "urn:oid:2.16.840.1.113883.3.464.1003.101.12.1014"
                  }
                ]
              },
              {
                "type": "Encounter",
                "codeFilter": [
                  {
                    "path": "type",
                    "valueSetString": "urn:oid:2.16.840.1.113883.3.464.1003.101.12.1012"
                  }
                ]
              },
              {
                "type": "Encounter",
                "codeFilter": [
                  {
                    "path": "type",
                    "valueSetString": "urn:oid:2.16.840.1.113883.3.464.1003.101.12.1083"
                  }
                ]
              },
              {
                "type": "MedicationDispense",
                "codeFilter": [
                  {
                    "path": "medication",
                    "valueSetString": "urn:oid:2.16.840.1.113883.3.464.1003.196.12.1510"
                  }
                ]
              },
              {
                "type": "DeviceRequest",
                "codeFilter": [
                  {
                    "path": "code",
                    "valueSetString": "urn:oid:2.16.840.1.113883.3.464.1003.118.12.1300"
                  }
                ]
              },
              {
                "type": "DeviceUseStatement"
              },
              {
                "type": "Condition",
                "codeFilter": [
                  {
                    "path": "code",
                    "valueSetString": "urn:oid:2.16.840.1.113883.3.464.1003.113.12.1074"
                  }
                ]
              },
              {
                "type": "Encounter",
                "codeFilter": [
                  {
                    "path": "type",
                    "valueSetString": "urn:oid:2.16.840.1.113883.3.464.1003.101.12.1088"
                  }
                ]
              },
              {
                "type": "Observation",
                "codeFilter": [
                  {
                    "path": "code",
                    "valueSetString": "urn:oid:2.16.840.1.113883.3.464.1003.113.12.1075"
                  }
                ]
              },
              {
                "type": "Observation",
                "codeFilter": [
                  {
                    "path": "code"
                  }
                ]
              },
              {
                "type": "Observation",
                "codeFilter": [
                  {
                    "path": "code"
                  }
                ]
              },
              {
                "type": "Encounter",
                "codeFilter": [
                  {
                    "path": "id"
                  }
                ]
              },
              {
                "type": "Condition",
                "codeFilter": [
                  {
                    "path": "code",
                    "valueSetString": "http://cts.nlm.nih.gov/fhir/ValueSet/2.16.840.1.113883.3.464.1003.104.12.1011"
                  }
                ]
              },
              {
                "type": "Condition",
                "codeFilter": [
                  {
                    "path": "code",
                    "valueSetString": "http://cts.nlm.nih.gov/fhir/ValueSet/2.16.840.1.113883.3.526.3.378"
                  }
                ]
              },
              {
                "type": "Condition",
                "codeFilter": [
                  {
                    "path": "code",
                    "valueSetString": "http://cts.nlm.nih.gov/fhir/ValueSet/2.16.840.1.113883.3.526.3.353"
                  }
                ]
              },
              {
                "type": "Condition",
                "codeFilter": [
                  {
                    "path": "code",
                    "valueSetString": "http://cts.nlm.nih.gov/fhir/ValueSet/2.16.840.1.113883.3.464.1003.109.12.1029"
                  }
                ]
              },
              {
                "type": "Condition",
                "codeFilter": [
                  {
                    "path": "code",
                    "valueSetString": "http://cts.nlm.nih.gov/fhir/ValueSet/2.16.840.1.113883.3.526.3.1002"
                  }
                ]
              },
              {
                "type": "Encounter",
                "codeFilter": [
                  {
                    "path": "type",
                    "valueSetString": "http://cts.nlm.nih.gov/fhir/ValueSet/2.16.840.1.113883.3.464.1003.109.12.1014"
                  }
                ]
              },
              {
                "type": "Procedure",
                "codeFilter": [
                  {
                    "path": "code",
                    "valueSetString": "http://cts.nlm.nih.gov/fhir/ValueSet/2.16.840.1.113883.3.464.1003.109.12.1011"
                  }
                ]
              },
              {
                "type": "Procedure",
                "codeFilter": [
                  {
                    "path": "code",
                    "valueSetString": "http://cts.nlm.nih.gov/fhir/ValueSet/2.16.840.1.113883.3.464.1003.109.12.1012"
                  }
                ]
              },
              {
                "type": "Procedure",
                "codeFilter": [
                  {
                    "path": "code",
                    "valueSetString": "http://cts.nlm.nih.gov/fhir/ValueSet/2.16.840.1.113883.3.464.1003.109.12.1013"
                  }
                ]
              }
            ],
            "content": [
              {
                "contentType": "text/cql",
                "data": ""
              }
            ]
        },
        "request": {
          "method": "PUT",
          "url": "Library/EXM165-FHIR3"
        }
      },
      {
        "resource": {
            "resourceType": "Measure",
            "id": "EXM165-FHIR3",
            "meta": {
                "versionId": "1",
                "lastUpdated": "2019-08-17T12:51:31.231+00:00",
                "profile": [
                    "http://hl7.org/fhir/us/cqfmeasures/StructureDefinition/proportion-measure-cqfm"
                ]
            },
            "extension": [
                {
                    "url": "http://hl7.org/fhir/us/cqfmeasures/StructureDefinition/cqfm-populationBasis",
                    "valueCode": "boolean"
                }
            ],
            "url": "http://hl7.org/fhir/us/cqfmeasures/Measure/EXM165-FHIR3",
            "version": "1.0.000",
            "name": "EXM165",
            "title": "Controlling High Blood Pressure",
            "status": "active",
            "experimental": true,
            "publisher": "National Committee for Quality Assurance (NCQA)",
            "description": "Percentage of patients 18-85 years of age who had a diagnosis of hypertension overlapping the measurement period and whose most recent blood pressure was adequately controlled (<140/90mmHg) during the measurement period",
            "purpose": "Patients 18-85 years of age who had a visit and diagnosis of essential hypertension overlapping the measurement period",
            "approvalDate": "2016-01-01",
            "lastReviewDate": "2016-09-01",
            "effectivePeriod": {
                "start": "2019-01-01",
                "end": "2019-12-31"
            },
            "useContext": [
                {
                    "code": {
                        "code": "program"
                    },
                    "valueCodeableConcept": {
                        "text": "eligible-provider"
                    }
                }
            ],
            "jurisdiction": [
                {
                    "coding": [
                        {
                            "system": "urn:iso:std:iso:3166",
                            "code": "US"
                        }
                    ]
                }
            ],
            "topic": [
                {
                    "coding": [
                        {
                            "system": "http://loinc.org",
                            "code": "57024-2",
                            "display": "Health Quality Measure Document"
                        }
                    ]
                }
            ],
            "contributor": [
                {
                    "type": "author",
                    "name": "National Committee for Quality Assurance"
                }
            ],
            "contact": [
                {
                    "telecom": [
                        {
                            "system": "url",
                            "value": "http://www.ncqa.org/"
                        }
                    ]
                }
            ],
            "copyright": "This Physician Performance Measure (Measure) and related data specifications were developed by the National Committee for Quality Assurance (NCQA). NCQA is not responsible for any use of the Measure. NCQA makes no representations, warranties, or endorsement about the quality of any organization or physician that uses or reports performance measures and NCQA has no liability to anyone who relies on such measures or specifications. NCQA holds a copyright in the Measure. The Measure can be reproduced and distributed, without modification, for noncommercial purposes (eg, use by healthcare providers in connection with their practices) without obtaining approval from NCQA. Commercial use is defined as the sale, licensing, or distribution of the Measure for commercial gain, or incorporation of the Measure into a product or service that is sold, licensed or distributed for commercial gain. All commercial uses or requests for modification must be approved by NCQA and are subject to a license at the discretion of NCQA. (C) 2012-2017 National Committee for Quality Assurance. All Rights Reserved. <br> Limited proprietary coding is contained in the Measure specifications for user convenience. Users of proprietary code sets should obtain all necessary licenses from the owners of the code sets. NCQA disclaims all liability for use or accuracy of any third party codes contained in the specifications. <br> CPT(R) contained in the Measure specifications is copyright 2004-2017 American Medical Association. LOINC(R) copyright 2004-2017 Regenstrief Institute, Inc. This material contains SNOMED Clinical Terms(R) (SNOMED CT[R] ) copyright 2004-2017 International Health Terminology Standards Development Organisation. ICD-10 copyright 2017 World Health Organization. All Rights Reserved.",
            "relatedArtifact": [
                {
                    "type": "citation",
                    "citation": "American Diabetes Association. (2018). 9. Cardiovascular disease and risk management: Standards of medical care in diabetes 2018. Diabetes Care, 41(Suppl. 1), S86-S104."
                },
                {
                    "type": "citation",
                    "citation": "Benjamin, E. J., Blaha, M. J., Chiuve, S. E., et al. (2017). Heart disease and stroke statistics-2017 update: A report from the American Heart Association. Circulation, 135(10), e146-e603.doi: 10.1161/CIR.0000000000000485"
                },
                {
                    "type": "citation",
                    "citation": "Centers for Disease Control and Prevention. (2012). Vital signs: Getting blood pressure under control. Retrieved from https://www.cdc.gov/vitalsigns/hypertension/index.html"
                },
                {
                    "type": "citation",
                    "citation": "Centers for Disease Control and Prevention. Division for Heart Disease and Stroke Prevention. (2016). High blood pressure fact sheet. Retrieved from https://www.cdc.gov/dhdsp/data_statistics/fact_sheets/fs_bloodpressure.htmhttps://www.cdc.gov/dhdsp/data_statistics/fact_sheets/fs_bloodpressure.htm. "
                },
                {
                    "type": "citation",
                    "citation": "Centers for Disease Control and Prevention, National Center for Health Statistics. (2015). Underlying Cause of Death 1999-2013 on CDC WONDER Online Database. Data are from the Multiple Cause of Death Files, 1999-2013, as compiled from data provided by the 57 vital statistics jurisdictions through the Vital Statistics Cooperative Program. Retrieved from http://wonder.cdc.gov/ucd-icd10.html"
                },
                {
                    "type": "citation",
                    "citation": "Crim, M. T., Yoon, S. S., Ortiz, E., et al. (2012). National surveillance definitions for hypertension prevalence and control among adults. Circulation: Cardiovascular Quality and Outcomes. 2012, ;5(3), :343-351. doi: 10.1161/ CIRCOUTCOMES.111.963439."
                },
                {
                    "type": "citation",
                    "citation": "James, P. A., Oparil, S., Carter, B. L., et al (2014). 2014 evidence-based guideline for the management of high blood pressure in adults: Report from the panel members appointed to the Eighth Joint National Committee (JNC8). JAMA. 311(5), 507-520. doi:10.1001/jama.2013.284427"
                },
                {
                    "type": "citation",
                    "citation": "Moran, A. E., Odden, M. C., Thanataveerat, A., et al.Tzong KY, Rasmussen PW, Guzman D, Williams L, Bibbins-Domingo K, Coxson PG, Goldman L. (2015). Cost-effectiveness of hypertension therapy according to 2014 guidelines. [published correction appears in N Engl J. Med. 2015;372:1677]. New England Journal of Medicine,. 2015 ;372, :447-455. doi:  10.1056/NEJMsa1406751. [published correction appears on page 1677] \nFarley TA, Dalal MA, Mostashari F, Frieden TR. Deaths preventable in the US by improvements in the use of clinical preventive services. Am J Prev Med. 2010;38:600-9."
                },
                {
                    "type": "citation",
                    "citation": "Patel, S. A., Winkel, M., Ali, M. K., et al. (2015). Cardiovascular mortality associated with 5 leading risk factors: National and state preventable fractions estimated from survey data. Annals of Internal Medicine, 163(4), :245253. doi: 10.7326/M14-1753"
                },
                {
                    "type": "citation",
                    "citation": "Qaseem, A., Wilt, T. J., Rich, R., et al. (2017). Pharmacologic treatment of hypertension in adults aged 60 years or older to higher versus lower blood pressure targets: A clinical practice guideline from the American College of Physicians and the American Academy of Family Physicians. Annals of Internal Medicine, 166(6), 430-437."
                },
                {
                    "type": "citation",
                    "citation": "SPRINT Research Group,; Wright, J. T., Jr., Williamson,  J. D., et al. (2015). A randomized trial of intensive versus standard blood-pressure control. New England Journal of Medicine, 373(22), 21032116."
                },
                {
                    "type": "citation",
                    "citation": "U.S. Preventive Services Task Force. (2015). Screening for high blood pressure in adults: U.S. Preventive Services Task Force recommendation statement. Annals of Internal Medicine, 163(10), 778-787."
                },
                {
                    "type": "citation",
                    "citation": "Whelton, P. K., Carey, R. M., Aronow, W. S., et al. (2017). Guideline for the prevention, detection, evaluation, and management of high blood pressure in adults: A report of the American College of Cardiology/American Heart Association Task Force on Clinical Practice Guidelines. Journal of the American College of Cardiology, . https://doi.org/10.1161/HYP.0000000000000065"
                },
                {
                    "type": "citation",
                    "citation": "Yoon, S. S., Fryar, C. D., & Carroll, M. D. (2015). Hypertension prevalence and control among adults: United States, 2011-2014. NCHS Data Brief No. 220. Hyattsville, MD: National Center for Health Statistics."
                }
            ],
            "library": [
                {
                    "reference": "Library/EXM165-FHIR3"
                }
            ],
            "disclaimer": "The performance Measure is not a clinical guideline and does not establish a standard of medical care, and has not been tested for all potential applications. THE MEASURE AND SPECIFICATIONS ARE PROVIDED \"AS IS\" WITHOUT WARRANTY OF ANY KIND.\n \nDue to technical limitations, registered trademarks are indicated by (R) or [R] and unregistered trademarks are indicated by (TM) or [TM].",
            "scoring": {
                "coding": [
                    {
                        "system": "http://hl7.org/fhir/measure-scoring",
                        "code": "proportion"
                    }
                ]
            },
            "type": [
                {
                    "coding": [
                        {
                            "system": "http://hl7.org/fhir/measure-type",
                            "code": "process"
                        }
                    ]
                }
            ],
            "rationale": "High blood pressure (HBP), also known as hypertension, is when the pressure in blood vessels is higher than normal (Centers for Disease Control and Prevention [CDC], 2016). The causes of hypertension are multiple and multifaceted and can be based on genetic predisposition, environmental risk factors, being overweight and obese, sodium intake, potassium intake, physical activity, and alcohol use. High Blood Pressure is common, according to the National Health and Nutrition Examination Survey (NHANES), approximately 85.7 million adults >= 20 years of age had HBP (140/90 mm Hg) between 2011 to 2014 (Crim, 2012. Between 2011-2014 the prevalence of hypertension (>=140/90 mm Hg) among US adults 60 and older was approximately 67.2 percent (Benjamin et al., 2017). \n\nHBP, known as the silent killer, increases risks of heart disease and stroke which are two of the leading causes of death in the U.S. (Yoon, Fryar, & Carroll, 2015). A person who has HBP is four times more likely to die from a stroke and three times more likely to die from heart disease (CDC, 2012) The National Vital Statistics Systems Center for Disease Control and Prevention reported that in 2014 there were approximately 73,300 deaths directly due to HBP and 410,624 deaths with any mention of HBP (CDC, 20145).Between 2004 and 2014 the number of deaths due to HBP rose by 34.1 percent (Benjamin et al., 2017). Managing and treating HBP would reduce cardiovascular disease mortality for males and females by 30.4 percent and 38.0 percent, respectively (Patel et al., 2015).\n\nThe estimated annual average direct and indirect cost of HBP from 2012 to 2013 was $51.2 billion (Benjamin et al., 2017). Total direct costs of HBP is projected to increase to $200 billion by 2030 (Benjamin et al., 2017). A study on cost-effectiveness on treating hypertension found that controlling HBP in patients with cardiovascular disease and systolic blood pressures of >=160 mm Hg could be effective and cost-saving (Moran et al., 2015). \n\nMany studies have shown that controlling high blood pressure reduces cardiovascular events and mortality. The Systolic Blood Pressure Intervention Trial (SPRINT) investigated the impact of obtaining a SBP goal of <120 mm Hg compared to a SBP goal of <140 mm Hg among patients 50 and older with established cardiovascular disease and found that the patients with the former goal had reduced cardiovascular events and mortality (SPRINT Research Group et al., 2015). \n\nControlling HBP will significantly reduce the risks of cardiovascular disease mortality and lead to better health outcomes like reduction of heart attacks, stroke, and kidney disease (James et al., 2014). Thus, the relationship between the measure (control of hypertension) and the long-term clinical outcomes listed is well established.",
            "clinicalRecommendationStatement": "The U.S. Preventive Services Task Force (2015) recommends  screening for high blood pressure in adults age 18 years and older. This is a grade A recommendation. \n\nAmerican College of Cardiology/American Heart Association (2017)\n-For adults with confirmed hypertension and known CVD or 10-year ASCVD event risk of 10% or higher, a blood pressure target of less than 130/80 mmHg is recommended\n-For adults with confirmed hypertension, without additional markers of increased CVD risk, a blood pressure target of less than 130/80 mmHg may be reasonable (Note: clinical trial evidence is strongest for a target blood pressure of 140/90 mmHg in this population. However observational studies suggest that these individuals often have a high lifetime risk and would benefit from blood pressure control earlier in life)\n\nAmerican College of Physicians and the American Academy of Family Physicians (2017):  \n-Initiate intensifying pharmacologic treatment in adults aged 60 and older at high cardiovascular risk, based on individualized assessment, to achieve a target systolic blood pressure of less than 140 mmHg (Grade: weak recommendation, quality of evidence: low)\n-Initiate intensifying pharmacologic treatment in adults aged 60 and older with a history of stroke or transient ischemic attack to achieve a target systolic blood pressure of less than 140 mmHg to reduce the risk of recurrent stroke (Grade: weak recommendation, quality of evidence: moderate)\n\nAmerican Diabetes Association (2018):\nMost patients with diabetes and hypertension should be treated to a systolic blood pressure goal of <140 mmHg and a diastolic blood pressure goal of <90 mmHg (Level of evidence: A)\n\nReport from the Eighth Joint National Committee (2014)\n-In the general population younger than 60 years, initiate pharmacologic treatment to lower blood pressure at diastolic blood pressure (DBP) of 90 mmHg or higher and treat to a goal of DBP of lower than 90 mmHg (Grade: A (for ages 30-59), Grade: E (for ages 18-29))\n-In the general population younger than 60 years, initiate pharmacologic treatment to lower blood pressure at systolic blood pressure (SBP) to 140 mmHg or higher and treat to a goal of SBP of lower than 140 mmHg (Grade: E)\n-In the general population aged 60 years and older, initiate pharmacologic treatment to lower blood pressure at SBP of 150 mmHg or higher or a DBP of 90 mmHg or higher and treat to a goal of SBP lower than 150 mmHg and goal of DBP lower than 90 mmHg",
            "improvementNotation": "increase",
            "guidance": "In reference to the numerator element, only blood pressure readings performed by a clinician or a remote monitoring device are acceptable  for numerator compliance with this measure. \n\nDo not include BP readings:\n-Taken during an acute inpatient stay or an ED visit\n-Taken on the same day as a diagnostic test or diagnostic or therapeutic procedure that requires a change in diet or change in medication on or one day before the day of the test or procedure, with the exception of fasting blood tests.\n-Reported by or taken by the member\n\n\nIf no blood pressure is recorded during the measurement period, the patient's blood pressure is assumed \"not controlled.\"\n\nIf there are multiple blood pressure readings on the same day, use the lowest systolic and the lowest diastolic reading as the most recent blood pressure reading.",
            "group": [
                {
                    "identifier": {
                        "value": "group-1"
                    },
                    "population": [
                        {
                            "identifier": {
                                "value": "initial-population-identifier"
                            },
                            "code": {
                                "coding": [
                                    {
                                        "system": "http://terminology.hl7.org/CodeSystem/measure-population",
                                        "code": "initial-population",
                                        "display": "Initial Population"
                                    }
                                ]
                            },
                            "criteria": "Initial Population"
                        },
                        {
                            "identifier": {
                                "value": "numerator-identifier"
                            },
                            "code": {
                                "coding": [
                                    {
                                        "system": "http://terminology.hl7.org/CodeSystem/measure-population",
                                        "code": "numerator",
                                        "display": "Numerator"
                                    }
                                ]
                            },
                            "criteria": "Numerator"
                        },
                        {
                            "identifier": {
                                "value": "denominator-identifier"
                            },
                            "code": {
                                "coding": [
                                    {
                                        "system": "http://terminology.hl7.org/CodeSystem/measure-population",
                                        "code": "denominator",
                                        "display": "Denominator"
                                    }
                                ]
                            },
                            "criteria": "Denominator"
                        },
                        {
                            "identifier": {
                                "value": "denominator-exclusions-identifier"
                            },
                            "code": {
                                "coding": [
                                    {
                                        "system": "http://terminology.hl7.org/CodeSystem/measure-population",
                                        "code": "denominator-exclusion",
                                        "display": "Denominator Exclusion"
                                    }
                                ]
                            },
                            "criteria": "Denominator Exclusion"
                        }
                    ]
                }
            ],
            "supplementalData": [
                {
                    "identifier": {
                        "value": "sde-ethnicity"
                    },
                    "usage": [
                        {
                            "coding": [
                                {
                                    "system": "http://hl7.org/fhir/measure-data-usage",
                                    "code": "supplemental-data"
                                }
                            ]
                        }
                    ],
                    "criteria": "SDE Ethnicity"
                },
                {
                    "identifier": {
                        "value": "sde-payer"
                    },
                    "usage": [
                        {
                            "coding": [
                                {
                                    "system": "http://hl7.org/fhir/measure-data-usage",
                                    "code": "supplemental-data"
                                }
                            ]
                        }
                    ],
                    "criteria": "SDE Payer"
                },
                {
                    "identifier": {
                        "value": "sde-race"
                    },
                    "usage": [
                        {
                            "coding": [
                                {
                                    "system": "http://hl7.org/fhir/measure-data-usage",
                                    "code": "supplemental-data"
                                }
                            ]
                        }
                    ],
                    "criteria": "SDE Race"
                },
                {
                    "identifier": {
                        "value": "sde-sex"
                    },
                    "usage": [
                        {
                            "coding": [
                                {
                                    "system": "http://hl7.org/fhir/measure-data-usage",
                                    "code": "supplemental-data"
                                }
                            ]
                        }
                    ],
                    "criteria": "SDE Sex"
                }
            ]
        },
        "request": {
          "method": "PUT",
          "url": "Measure/EXM165-FHIR3"
        }
      }
    ]
  }