{
  "resourceType": "Bundle",
  "id": "Irene-Sarah-Scott-2675-Encounter-850",
  "type": "transaction",
  "entry": [
    {
      "fullUrl": "http://localhost:8080/cqf-ruler/baseDstu3/Encounter/Encounter-850",
      "resource": {
        "resourceType": "Encounter",
        "id": "Encounter-850",
        "meta": {
          "profile": [
            "http://hl7.org/fhir/us/hedis/StructureDefinition/hedis-encounter"
          ]
        },
        "extension": [
          {
            "url": "http://mihin.org/extension/copyright",
            "valueString": "Copyright 2014-2019 Michigan Health Information Network Shared Services. Licensed under the Apache License, Version 2.0 (the 'License'); you may not use this file except in compliance with the License. You may obtain a copy of the License at  http://www.apache.org/licenses/LICENSE-2.0.  Unless required by applicable law or agreed to in writing, software distributed under the License is distributed on an 'AS IS' BASIS, WITHOUT WARRANTIES OR CONDITIONS OF ANY KIND, either express or implied. See the License for the specific language governing permissions and limitations under the License."
          }
        ],
        "status": "finished",
        "class": {
          "system": "http://hl7.org/fhir/encounter-class",
          "code": "ambulatory",
          "display": "ambulatory"
        },
        "type": [
          {
            "coding": [
              {
                "system": "http://www.ama-assn.org/go/cpt",
                "code": "99215",
                "display": "Combined Office Visits"
              }
            ]
          }
        ],
        "subject": {
          "reference": "Patient/Patient-2675",
          "display": "Irene Sarah Scott"
        },
        "participant": [
          {
            "period": {
              "start": "2019-01-29T15:32:00-05:00",
              "end": "2019-01-29T15:32:00-05:00"
            },
            "individual": {
              "reference": "Practitioner/Practitioner-2266",
              "display": "Gene Middleton Wilkins MD"
            }
          }
        ],
        "period": {
          "start": "2019-01-29T15:32:00-05:00",
          "end": "2019-01-29T15:32:00-05:00"
        },
        "location": [
          {
            "location": {
              "reference": "Location/Location-181",
              "display": "Mother Charity Hospital"
            }
          }
        ],
        "serviceProvider": {
          "reference": "Organization/Organization-1015",
          "display": "Mother Charity Hospital"
        }
      },
      "request": {
        "method": "PUT",
        "url": "http://localhost:8080/cqf-ruler/baseDstu3/Encounter/Encounter-850"
      }
    },
    {
      "fullUrl": "http://localhost:8080/cqf-ruler/baseDstu3/Procedure/Procedure-104103",
      "resource": {
        "resourceType": "Procedure",
        "id": "Procedure-104103",
        "meta": {
          "profile": [
            "http://hl7.org/fhir/us/hedis/StructureDefinition/hedis-procedure"
          ]
        },
        "extension": [
          {
            "url": "http://mihin.org/extension/copyright",
            "valueString": "Copyright 2014-2019 Michigan Health Information Network Shared Services. Licensed under the Apache License, Version 2.0 (the 'License'); you may not use this file except in compliance with the License. You may obtain a copy of the License at  http://www.apache.org/licenses/LICENSE-2.0.  Unless required by applicable law or agreed to in writing, software distributed under the License is distributed on an 'AS IS' BASIS, WITHOUT WARRANTIES OR CONDITIONS OF ANY KIND, either express or implied. See the License for the specific language governing permissions and limitations under the License."
          }
        ],
        "identifier": [
          {
            "use": "official",
            "system": "mihin.org/fhir/sid/elementId",
            "value": "878b3468-0288-4684-a60b-5a05bf8d892f"
          }
        ],
        "status": "completed",
        "code": {
          "coding": [
            {
              "system": "http://www.ama-assn.org/go/cpt",
              "code": "77055"
            }
          ]
        },
        "subject": {
          "reference": "Patient/Patient-2675",
          "display": "Irene Sarah Scott"
        },
        "context": {
          "reference": "Encounter/Encounter-850",
          "display": "Ambulatory_Encounter"
        },
        "performedPeriod": {
          "start": "2019-01-29T15:32:00-05:00",
          "end": "2019-01-29T15:32:00-05:00"
        },
        "performer": [
          {
            "actor": {
              "reference": "Practitioner/Practitioner-2266",
              "display": "Gene Middleton Wilkins MD"
            }
          }
        ],
        "location": {
          "reference": "Location/Location-181",
          "display": "Mother Charity Hospital"
        }
      },
      "request": {
        "method": "PUT",
        "url": "http://localhost:8080/cqf-ruler/baseDstu3/Procedure/Procedure-104103"
      }
    },
    {
      "fullUrl": "http://localhost:8080/cqf-ruler/baseDstu3/Observation/Observation-104104",
      "resource": {
        "resourceType": "Observation",
        "id": "Observation-104104",
        "meta": {
          "profile": [
            "http://hl7.org/fhir/us/hedis/StructureDefinition/hedis-observation"
          ]
        },
        "extension": [
          {
            "url": "http://mihin.org/extension/copyright",
            "valueString": "Copyright 2014-2019 Michigan Health Information Network Shared Services. Licensed under the Apache License, Version 2.0 (the 'License'); you may not use this file except in compliance with the License. You may obtain a copy of the License at  http://www.apache.org/licenses/LICENSE-2.0.  Unless required by applicable law or agreed to in writing, software distributed under the License is distributed on an 'AS IS' BASIS, WITHOUT WARRANTIES OR CONDITIONS OF ANY KIND, either express or implied. See the License for the specific language governing permissions and limitations under the License."
          }
        ],
        "identifier": [
          {
            "use": "official",
            "system": "mihin.org/fhir/sid/elementId",
            "value": "7bd1939c-7bfd-4549-b073-1d409304eea5"
          }
        ],
        "status": "final",
        "category": [
          {
            "coding": [
              {
                "system": "http://hl7.org/fhir/observation-category",
                "code": "exam",
                "display": "Exam"
              }
            ]
          }
        ],
        "code": {
          "coding": [
            {
              "system": "http://snomed.info/sct",
              "code": "168749009",
              "display": "Mammography normal (finding)"
            }
          ]
        },
        "subject": {
          "reference": "Patient/Patient-2675",
          "display": "Irene Sarah Scott"
        },
        "context": {
          "reference": "Encounter/Encounter-850",
          "display": "Ambulatory_Encounter"
        },
        "effectiveDateTime": "2019-01-29T15:32:00-05:00",
        "performer": [
          {
            "reference": "Practitioner/Practitioner-2266",
            "display": "Gene Middleton Wilkins MD"
          }
        ],
        "valueString": "NEGATIVE"
      },
      "request": {
        "method": "PUT",
        "url": "http://localhost:8080/cqf-ruler/baseDstu3/Observation/Observation-104104"
      }
    },
    {
      "fullUrl": "http://localhost:8080/cqf-ruler/baseDstu3/Observation/Observation-104105",
      "resource": {
        "resourceType": "Observation",
        "id": "Observation-104105",
        "meta": {
          "profile": [
            "http://hl7.org/fhir/us/hedis/StructureDefinition/hedis-observation"
          ]
        },
        "extension": [
          {
            "url": "http://mihin.org/extension/copyright",
            "valueString": "Copyright 2014-2019 Michigan Health Information Network Shared Services. Licensed under the Apache License, Version 2.0 (the 'License'); you may not use this file except in compliance with the License. You may obtain a copy of the License at  http://www.apache.org/licenses/LICENSE-2.0.  Unless required by applicable law or agreed to in writing, software distributed under the License is distributed on an 'AS IS' BASIS, WITHOUT WARRANTIES OR CONDITIONS OF ANY KIND, either express or implied. See the License for the specific language governing permissions and limitations under the License."
          }
        ],
        "identifier": [
          {
            "use": "official",
            "system": "mihin.org/fhir/sid/elementId",
            "value": "50edafd7-6c4b-4031-8971-a2a497c999bf"
          }
        ],
        "status": "final",
        "category": [
          {
            "coding": [
              {
                "system": "http://hl7.org/fhir/observation-category",
                "code": "exam",
                "display": "Exam"
              }
            ]
          }
        ],
        "code": {
          "coding": [
            {
              "system": "http://snomed.info/sct",
              "code": "397145000",
              "display": "Mammography assessment (Category 5) - Highly suggestive of malignancy"
            }
          ]
        },
        "subject": {
          "reference": "Patient/Patient-2675",
          "display": "Irene Sarah Scott"
        },
        "context": {
          "reference": "Encounter/Encounter-850",
          "display": "Ambulatory_Encounter"
        },
        "effectiveDateTime": "2019-01-29T15:32:00-05:00",
        "performer": [
          {
            "reference": "Practitioner/Practitioner-2266",
            "display": "Gene Middleton Wilkins MD"
          }
        ],
        "valueString": "POSITIVE"
      },
      "request": {
        "method": "PUT",
        "url": "http://localhost:8080/cqf-ruler/baseDstu3/Observation/Observation-104105"
      }
    },
    {
      "fullUrl": "http://localhost:8080/cqf-ruler/baseDstu3/DiagnosticReport/DiagnosticReport-104106",
      "resource": {
        "resourceType": "DiagnosticReport",
        "id": "DiagnosticReport-104106",
        "meta": {
          "profile": [
            "http://hl7.org/fhir/us/hedis/StructureDefinition/hedis-diagnosticreport"
          ]
        },
        "extension": [
          {
            "url": "http://mihin.org/extension/copyright",
            "valueString": "Copyright 2014-2019 Michigan Health Information Network Shared Services. Licensed under the Apache License, Version 2.0 (the 'License'); you may not use this file except in compliance with the License. You may obtain a copy of the License at  http://www.apache.org/licenses/LICENSE-2.0.  Unless required by applicable law or agreed to in writing, software distributed under the License is distributed on an 'AS IS' BASIS, WITHOUT WARRANTIES OR CONDITIONS OF ANY KIND, either express or implied. See the License for the specific language governing permissions and limitations under the License."
          }
        ],
        "identifier": [
          {
            "use": "official",
            "system": "mihin.org/fhir/sid/elementId",
            "value": "a101ba60-6a4a-412a-8eb8-d7b6d1d5f8c0"
          }
        ],
        "status": "final",
        "code": {
          "coding": [
            {
              "system": "http://loinc.org",
              "code": "38072-5",
              "display": "Breast implant - left Mammogram"
            }
          ]
        },
        "subject": {
          "reference": "Patient/Patient-2675",
          "display": "Irene Sarah Scott"
        },
        "context": {
          "reference": "Encounter/Encounter-850",
          "display": "Ambulatory_Encounter"
        },
        "effectivePeriod": {
          "start": "2019-01-29T15:32:00-05:00",
          "end": "2019-01-29T15:32:00-05:00"
        },
        "issued": "2019-01-29T15:32:00.000-05:00",
        "performer": [
          {
            "actor": {
              "reference": "Practitioner/Practitioner-2266",
              "display": "Gene Middleton Wilkins MD"
            }
          }
        ],
        "result": [
          {
            "reference": "Observation/Observation-104105",
            "display": "Breast_Cancer_Report_Observation_1"
          }
        ]
      },
      "request": {
        "method": "PUT",
        "url": "http://localhost:8080/cqf-ruler/baseDstu3/DiagnosticReport/DiagnosticReport-104106"
      }
    }
  ]
}