{
  "resourceType": "Bundle",
  "id": "EXM105-FHIR3-8.0.000-bundle",
  "type": "transaction",
  "entry": [ {
    "resource": {
      "resourceType": "MedicationRequest",
      "id": "numer-EXM105-FHIR3-5",
      "status": "completed",
      "intent": "order",
      "category": {
        "coding": [ {
          "system": "http://terminology.hl7.org/CodeSystem/medicationrequest-category",
          "code": "discharge",
          "display": "Discharge"
        } ]
      },
      "medicationCodeableConcept": {
        "coding": [ {
          "system": "http://www.nlm.nih.gov/research/umls/rxnorm",
          "code": "197903",
          "display": "Lovastatin 10 MG Oral Tablet"
        } ]
      },
      "subject": {
        "reference": "Patient/numer-EXM105-FHIR3"
      },
      "authoredOn": "2019-12-19T08:00:00-07:00"
    },
    "request": {
      "method": "PUT",
      "url": "MedicationRequest/numer-EXM105-FHIR3-5"
    }
  }, {
    "resource": {
      "resourceType": "ValueSet",
      "id": "2.16.840.1.113883.3.117.1.7.1.292",
      "url": "http://cts.nlm.nih.gov/fhir/ValueSet/2.16.840.1.113883.3.117.1.7.1.292",
      "title": "Emergency Department Visit",
      "status": "active",
      "publisher": "The Joint Commission",
      "compose": {
        "include": [ {
          "system": "http://snomed.info/sct",
          "version": "2019-03",
          "concept": [ {
            "code": "4525004",
            "display": "Emergency department patient visit (procedure)"
          } ]
        } ]
      }
    },
    "request": {
      "method": "PUT",
      "url": "ValueSet/2.16.840.1.113883.3.117.1.7.1.292"
    }
  }, {
    "resource": {
      "resourceType": "ValueSet",
      "id": "2.16.840.1.113762.1.4.1111.143",
      "url": "http://cts.nlm.nih.gov/fhir/ValueSet/2.16.840.1.113762.1.4.1111.143",
      "title": "Observation Services",
      "status": "active",
      "publisher": "The Joint Commission",
      "compose": {
        "include": [ {
          "system": "http://snomed.info/sct",
          "version": "2019-09",
          "concept": [ {
            "code": "448851000124103",
            "display": "Hospital admission from observation unit (procedure)"
          }, {
            "code": "448951000124107",
            "display": "Admission to observation unit (procedure)"
          }, {
            "code": "76464004",
            "display": "Hospital admission, for observation (procedure)"
          } ]
        } ]
      }
    },
    "request": {
      "method": "PUT",
      "url": "ValueSet/2.16.840.1.113762.1.4.1111.143"
    }
  }, {
    "resource": {
      "resourceType": "Library",
      "id": "library-EXM105-FHIR3-8.0.000",
      "text": {
        "status": "generated",
        "div": "<div xmlns=\"http://www.w3.org/1999/xhtml\"><table class=\"grid dict\"><tr><th scope=\"row\"><b>Id: </b></th><td style=\"padding-left: 25px; padding-right: 25px;\">library-EXM105-FHIR3-8.0.000</td></tr><tr><th scope=\"row\"><b>Type: </b></th><td style=\"padding-right: 25px;\"> Logic Library </td></tr><tr><th scope=\"row\"><b>Version: </b></th><td style=\"padding-left: 25px; padding-right: 25px;\">8.0.000</td></tr><tr><th scope=\"row\"><b>Status: </b></th><td style=\"padding-left: 25px; padding-right: 25px;\">active</td></tr><tr style=\"vertical-align: top;\"><th rowspan=\"4\" scope=\"row\"><b>Related: </b></th><td style=\"padding-left: 25px; padding-right: 25px;\"><p style=\"margin-bottom: 5px;\"><b>type: </b><span>depends-on</span></p><p style=\"margin-bottom: 5px;\"><b>Resource: </b><br/><span><span style=\"padding-left: 25px;\"><b>reference: </b><span>Library/library-FHIRHelpers-3.0.0</span></span></span></p></td></tr><tr style=\"vertical-align: top;\"><td style=\"padding-left: 25px; padding-right: 25px;\"><p style=\"margin-bottom: 5px;\"><b>type: </b><span>depends-on</span></p><p style=\"margin-bottom: 5px;\"><b>Resource: </b><br/><span><span style=\"padding-left: 25px;\"><b>reference: </b><span>Library/library-MATGlobalCommonFunctions-FHIR3-4.0.000</span></span></span></p></td></tr><tr style=\"vertical-align: top;\"><td style=\"padding-left: 25px; padding-right: 25px;\"><p style=\"margin-bottom: 5px;\"><b>type: </b><span>depends-on</span></p><p style=\"margin-bottom: 5px;\"><b>Resource: </b><br/><span><span style=\"padding-left: 25px;\"><b>reference: </b><span>Library/library-SupplementalDataElements-FHIR3-1.0.0</span></span></span></p></td></tr><tr style=\"vertical-align: top;\"><td style=\"padding-left: 25px; padding-right: 25px;\"><p style=\"margin-bottom: 5px;\"><b>type: </b><span>depends-on</span></p><p style=\"margin-bottom: 5px;\"><b>Resource: </b><br/><span><span style=\"padding-left: 25px;\"><b>reference: </b><span>Library/library-TJCOverall-FHIR3-3.6.000</span></span></span></p></td></tr><tr style=\"vertical-align: top;\"><th rowspan=\"8\" scope=\"row\"><b>Data Requirements: </b></th><td style=\"padding-left: 25px; padding-right: 25px;\"><div><p style=\"margin-bottom: 5px;\"><b>type: </b><span>Encounter</span></p><p style=\"margin-bottom: 5px;\"><b>code filter:</b><br/><span style=\"padding-left: 25px;\"><b>path: </b><span>type</span></span><br/><span style=\"padding-left: 25px;\"><b>valueset: </b><span>http://cts.nlm.nih.gov/fhir/ValueSet/2.16.840.1.113883.3.117.1.7.1.424</span></span></p></div></td></tr><tr style=\"vertical-align: top;\"><td style=\"padding-left: 25px; padding-right: 25px;\"><div><p style=\"margin-bottom: 5px;\"><b>type: </b><span>Patient</span></p></div></td></tr><tr style=\"vertical-align: top;\"><td style=\"padding-left: 25px; padding-right: 25px;\"><div><p style=\"margin-bottom: 5px;\"><b>type: </b><span>AllergyIntolerance</span></p><p style=\"margin-bottom: 5px;\"><b>code filter:</b><br/><span style=\"padding-left: 25px;\"><b>path: </b><span>code</span></span><br/><span style=\"padding-left: 25px;\"><b>valueset: </b><span>http://cts.nlm.nih.gov/fhir/ValueSet/2.16.840.1.113883.3.117.1.7.1.423</span></span></p></div></td></tr><tr style=\"vertical-align: top;\"><td style=\"padding-left: 25px; padding-right: 25px;\"><div><p style=\"margin-bottom: 5px;\"><b>type: </b><span>MedicationRequest</span></p></div></td></tr><tr style=\"vertical-align: top;\"><td style=\"padding-left: 25px; padding-right: 25px;\"><div><p style=\"margin-bottom: 5px;\"><b>type: </b><span>MedicationRequest</span></p></div></td></tr><tr style=\"vertical-align: top;\"><td style=\"padding-left: 25px; padding-right: 25px;\"><div><p style=\"margin-bottom: 5px;\"><b>type: </b><span>Observation</span></p><p style=\"margin-bottom: 5px;\"><b>code filter:</b><br/><span style=\"padding-left: 25px;\"><b>path: </b><span>code</span></span><br/><span style=\"padding-left: 25px;\"><b>valueset: </b><span>http://cts.nlm.nih.gov/fhir/ValueSet/2.16.840.1.113883.3.117.1.7.1.215</span></span></p></div></td></tr><tr style=\"vertical-align: top;\"><td style=\"padding-left: 25px; padding-right: 25px;\"><div><p style=\"margin-bottom: 5px;\"><b>type: </b><span>ProcedureRequest</span></p><p style=\"margin-bottom: 5px;\"><b>code filter:</b><br/><span style=\"padding-left: 25px;\"><b>path: </b><span>code</span></span><br/><span style=\"padding-left: 25px;\"><b>valueset: </b><span>http://cts.nlm.nih.gov/fhir/ValueSet/1.3.6.1.4.1.33895.1.3.0.45</span></span></p></div></td></tr><tr style=\"vertical-align: top;\"><td style=\"padding-left: 25px; padding-right: 25px;\"><div><p style=\"margin-bottom: 5px;\"><b>type: </b><span>Procedure</span></p><p style=\"margin-bottom: 5px;\"><b>code filter:</b><br/><span style=\"padding-left: 25px;\"><b>path: </b><span>code</span></span><br/><span style=\"padding-left: 25px;\"><b>valueset: </b><span>http://cts.nlm.nih.gov/fhir/ValueSet/1.3.6.1.4.1.33895.1.3.0.45</span></span></p></div></td></tr><tr style=\"vertical-align: top;\"><th scope=\"row\"><b>Content: </b></th><td style=\"padding-left: 25px; padding-right: 25px;\"><b>type: </b><span>text/cql</span></td></tr><tr><td colspan=\"2\" style=\"padding-left: 25px; padding-right: 25px;\"><pre><code class=\"language-cql\">library EXM105_FHIR3 version '8.0.000'\n\n/*\nBased on CMS105v8 - Discharged on Statin Medication\nAuthor: TJC\n*/\n\nusing FHIR version '3.0.0'\n\ninclude FHIRHelpers version '3.0.0'\ninclude MATGlobalCommonFunctions_FHIR3 version '4.0.000' called Global\ninclude SupplementalDataElements_FHIR3 version '1.0.0' called SDE\ninclude TJCOverall_FHIR3 version '3.6.000' called TJC\n\ncodesystem &quot;LOINC&quot;: 'http://loinc.org'\ncodesystem &quot;SNOMEDCT&quot;: 'http://snomed.info/sct/731000124108'\ncodesystem &quot;Diagnosis Role&quot;: 'http://hl7.org/fhir/diagnosis-role'\ncodesystem &quot;RequestIntent&quot;: 'http://hl7.org/fhir/request-intent'\n\nvalueset &quot;Comfort Measures&quot;: 'http://cts.nlm.nih.gov/fhir/ValueSet/1.3.6.1.4.1.33895.1.3.0.45'\nvalueset &quot;Discharged to Health Care Facility for Hospice Care&quot;: 'http://cts.nlm.nih.gov/fhir/ValueSet/2.16.840.1.113883.3.117.1.7.1.207'\nvalueset &quot;Discharge To Acute Care Facility&quot;: 'http://cts.nlm.nih.gov/fhir/ValueSet/2.16.840.1.113883.3.117.1.7.1.87'\nvalueset &quot;Discharged to Home for Hospice Care&quot;: 'http://cts.nlm.nih.gov/fhir/ValueSet/2.16.840.1.113883.3.117.1.7.1.209'\nvalueset &quot;Emergency Department Visit&quot;: 'http://cts.nlm.nih.gov/fhir/ValueSet/2.16.840.1.113883.3.117.1.7.1.292'\nvalueset &quot;Ethnicity&quot;: 'http://cts.nlm.nih.gov/fhir/ValueSet/2.16.840.1.114222.4.11.837'\nvalueset &quot;Ischemic Stroke&quot;: 'http://cts.nlm.nih.gov/fhir/ValueSet/2.16.840.1.113883.3.117.1.7.1.247'\nvalueset &quot;Hemorrhagic Stroke&quot;: 'http://cts.nlm.nih.gov/fhir/ValueSet/2.16.840.1.113883.3.117.1.7.1.212'\nvalueset &quot;LDL-c&quot;: 'http://cts.nlm.nih.gov/fhir/ValueSet/2.16.840.1.113883.3.117.1.7.1.215'\nvalueset &quot;Left Against Medical Advice&quot;: 'http://cts.nlm.nih.gov/fhir/ValueSet/2.16.840.1.113883.3.117.1.7.1.308'\nvalueset &quot;Medical Reason&quot;: 'http://cts.nlm.nih.gov/fhir/ValueSet/2.16.840.1.113883.3.117.1.7.1.473'\nvalueset &quot;Non-Elective Inpatient Encounter&quot;: 'http://cts.nlm.nih.gov/fhir/ValueSet/2.16.840.1.113883.3.117.1.7.1.424'\nvalueset &quot;Observation Services&quot;: 'http://cts.nlm.nih.gov/fhir/ValueSet/2.16.840.1.113762.1.4.1111.143'\nvalueset &quot;ONC Administrative Sex&quot;: 'http://cts.nlm.nih.gov/fhir/ValueSet/2.16.840.1.113762.1.4.1'\nvalueset &quot;Patient Expired&quot;: 'http://cts.nlm.nih.gov/fhir/ValueSet/2.16.840.1.113883.3.117.1.7.1.309'\nvalueset &quot;Patient Refusal&quot;: 'http://cts.nlm.nih.gov/fhir/ValueSet/2.16.840.1.113883.3.117.1.7.1.93'\nvalueset &quot;Payer&quot;: 'http://cts.nlm.nih.gov/fhir/ValueSet/2.16.840.1.114222.4.11.3591'\nvalueset &quot;Race&quot;: 'http://cts.nlm.nih.gov/fhir/ValueSet/2.16.840.1.114222.4.11.836'\nvalueset &quot;Statin Allergen&quot;: 'http://cts.nlm.nih.gov/fhir/ValueSet/2.16.840.1.113883.3.117.1.7.1.423'\nvalueset &quot;Statin Grouper&quot;: 'http://cts.nlm.nih.gov/fhir/ValueSet/2.16.840.1.113762.1.4.1110.19'\n\n// TODO: Use NLM VSAC Canonical URLs\ncode &quot;Birthdate&quot;: '21112-8' from &quot;LOINC&quot; display 'Birth date'\ncode &quot;Dead&quot;: '419099009' from &quot;SNOMEDCT&quot; display 'Dead'\n//code &quot;Medication-dischargeMedication&quot;: '8654-6' from &quot;LOINC&quot; display 'Hospital Discharge medications'\n\ncode &quot;Billing&quot;: 'billing' from &quot;Diagnosis Role&quot; display 'Billing'\ncode &quot;Order&quot;: 'order' from &quot;RequestIntent&quot; display 'Order'\n\nparameter &quot;Measurement Period&quot; Interval&lt;DateTime&gt;\n  default Interval[@2019-01-01T00:00:00.0, @2020-01-01T00:00:00.0)\n\ncontext Patient\n\ndefine &quot;SDE Ethnicity&quot;:\n  SDE.&quot;SDE Ethnicity&quot;\n\ndefine &quot;SDE Payer&quot;:\n\tSDE.&quot;SDE Payer&quot;\n\ndefine &quot;SDE Race&quot;:\n  SDE.&quot;SDE Race&quot;\n\ndefine &quot;SDE Sex&quot;:\n\tSDE.&quot;SDE Sex&quot;\n\ndefine &quot;Initial Population&quot;:\n\t&quot;Encounter with Principal Diagnosis and Age&quot;\n\ndefine &quot;Encounter with Principal Diagnosis and Age&quot;:\n\t&quot;All Stroke Encounter&quot; AllStrokeEncounter\n\t\twith [&quot;Patient&quot;] BirthDate\n\t\t\tsuch that AgeInYearsAt(AllStrokeEncounter.period.start) &gt;= 18\n\ndefine &quot;All Stroke Encounter&quot;:\n\t&quot;Non Elective Inpatient Encounter&quot; NonElectiveEncounter\n\t\twhere Global.PrincipalDiagnosis(NonElectiveEncounter).code in &quot;Hemorrhagic Stroke&quot;\n\t\tor Global.PrincipalDiagnosis(NonElectiveEncounter).code in &quot;Ischemic Stroke&quot;\n\ndefine &quot;Non Elective Inpatient Encounter&quot;:\n\t[&quot;Encounter&quot;: &quot;Non-Elective Inpatient Encounter&quot;] NonElectiveEncounter\n\t\twhere Global.&quot;LengthInDays&quot;(NonElectiveEncounter.period)&lt;= 120\n\t\t\tand NonElectiveEncounter.period ends during &quot;Measurement Period&quot;\n\ndefine &quot;Denominator&quot;:\n\tTJC.&quot;Ischemic Stroke Encounter&quot;\n\ndefine &quot;Statin Allergy&quot;:\n\t[&quot;AllergyIntolerance&quot;: &quot;Statin Allergen&quot;]\n\ndefine &quot;Numerator&quot;:\n\t&quot;Ischemic Stroke Encounter&quot; IschemicStrokeEncounter\n\t\twith &quot;Statin at Discharge&quot; DischargeStatin\n\t\t\tsuch that DischargeStatin.authoredOn during IschemicStrokeEncounter.period\n\ndefine &quot;Ischemic Stroke Encounter&quot;:\n\t&quot;Encounter with Principal Diagnosis and Age&quot; EncounterWithAge\n\t\twhere Global.PrincipalDiagnosis(EncounterWithAge).code in &quot;Ischemic Stroke&quot;\n\n// Medication orders at discharge, how do we know that these are ordered with the intent to be taken discharge rather than the inpatient stay.\ndefine &quot;Statin at Discharge&quot;:\n\t[&quot;MedicationRequest&quot;] Statin\n\t\twhere (Statin.medication as CodeableConcept) in &quot;Statin Grouper&quot;\n\t\t\tand Statin.intent = 'order'\n\ndefine &quot;Statin Not Given at Discharge&quot;:\n\t[&quot;MedicationRequest&quot;] NoStatin\n\t\twhere (NoStatin.medication as CodeableConcept) in &quot;Statin Grouper&quot;\n\t\t\tand (singleton from NoStatin.reasonCode in &quot;Medical Reason&quot;\n\t\t\t\tor singleton from NoStatin.reasonCode in &quot;Patient Refusal&quot;)\n\n//Folling function copied from MATGlobalCommonFunctions 2.0 in cqf-measures github repo\ndefine function &quot;Normalize Onset&quot;(onset Choice&lt;FHIR.dateTime, FHIR.Age, FHIR.Period, FHIR.Range, FHIR.string&gt;):\n\tif onset is FHIR.dateTime then Interval[onset.value, onset.value]\n\telse if onset is FHIR.Period then FHIRHelpers.ToInterval(onset as FHIR.Period)\n\telse null\n\ndefine &quot;Encounter with Max LDL less than 70 mg per dL&quot;:\n\t&quot;Ischemic Stroke Encounter&quot; IschemicStrokeEncounter\n\t\twhere Max([&quot;Observation&quot;: &quot;LDL-c&quot;] Ldl\n\t\t\t\twhere Ldl.issued during Interval[IschemicStrokeEncounter.period.start - 30 days,IschemicStrokeEncounter.period.end]\n\t\t\t\treturn (Ldl.value as Quantity)\n\t\t) &lt; 70\n\ndefine &quot;Denominator Exception&quot;:\n\t(&quot;Ischemic Stroke Encounter&quot; IschemicStrokeEncounter\n\t\twith &quot;Statin Not Given at Discharge&quot; NoDischargeStatin\n\t\t\tsuch that NoDischargeStatin.authoredOn during IschemicStrokeEncounter.period\n\t)\n\tunion\n\t(&quot;Ischemic Stroke Encounter&quot; IschemicStrokeEncounter\n\t\twith &quot;Statin Allergy&quot; StatinAllergy\n\t\t\tsuch that &quot;Normalize Onset&quot;(StatinAllergy.onset) on or before end of IschemicStrokeEncounter.period)\n\ndefine &quot;Denominator Exclusion&quot;:\n\t&quot;Ischemic Stroke Encounters with Discharge Status&quot;\n\tunion\n\t&quot;Comfort Measures during Hospitalization&quot;\n\ndefine &quot;Ischemic Stroke Encounters with Discharge Status&quot;:\n\t(&quot;Ischemic Stroke Encounter&quot; IschemicStrokeEncounter\n\t\twhere IschemicStrokeEncounter.hospitalization.dischargeDisposition in &quot;Discharge To Acute Care Facility&quot;\n\t\t\tor IschemicStrokeEncounter.hospitalization.dischargeDisposition in &quot;Left Against Medical Advice&quot;\n\t\t\tor IschemicStrokeEncounter.hospitalization.dischargeDisposition in &quot;Patient Expired&quot;\n\t\t\tor IschemicStrokeEncounter.hospitalization.dischargeDisposition in &quot;Discharged to Home for Hospice Care&quot;\n\t\t\tor IschemicStrokeEncounter.hospitalization.dischargeDisposition in &quot;Discharged to Health Care Facility for Hospice Care&quot;\n\t)\n\ndefine &quot;Comfort Measures during Hospitalization&quot;:\n\t&quot;Ischemic Stroke Encounter&quot; IschemicStrokeEncounter\n\t\twith &quot;Intervention Comfort Measures&quot; ComfortMeasure\n\t\t\tsuch that ComfortMeasure.authoredOn during Global.&quot;Hospitalization&quot;(IschemicStrokeEncounter)\n\n/*\ndefine &quot;Intervention Comfort Measures&quot;:\n\t([&quot;ProcedureRequest&quot;: &quot;Comfort Measures&quot;] P\n\t\twhere P.intent = 'order')\n\t\tunion [&quot;Procedure&quot;: &quot;Comfort Measures&quot;]\n*/\n\ndefine &quot;Intervention Comfort Measures&quot;:\n\t([&quot;ProcedureRequest&quot;: &quot;Comfort Measures&quot;] P\n\t\twhere P.intent in {'plan', 'order'})\n\t\tunion\n\t\t([&quot;Procedure&quot;: &quot;Comfort Measures&quot;] IntervetionPerformed\n\t\twhere IntervetionPerformed.status in {'complete', 'in progress'})\n</code></pre>\n                    \n                    \n                </td>\n            </tr>\n        \n    </table>\n</div>"
      },
      "extension": [ {
        "url": "http://hl7.org/fhir/us/cqfmeasures/StructureDefinition/cqfm-softwaresystem",
        "valueReference": {
          "reference": "cqf-tooling"
        }
      } ],
      "version": "8.0.000",
      "name": "EXM105_FHIR3",
      "status": "active",
      "experimental": true,
      "type": {
        "coding": [ {
          "system": "http://hl7.org/fhir/codesystem-library-type.html",
          "code": "logic-library"
        } ]
      },
      "content": [ {
        "contentType": "text/cql",
        "data": ""
      } ]
    },
    "request": {
      "method": "PUT",
      "url": "Library/library-EXM105-FHIR3-8.0.000"
    }
  }, {
    "resource": {
      "resourceType": "Condition",
      "id": "numer-EXM105-FHIR3-1",
      "meta": {
        "profile": [ "http://hl7.org/fhir/us/core/StructureDefinition/us-core-condition" ]
      },
      "verificationStatus": "confirmed",
      "category": [ {
        "coding": [ {
          "system": "http://terminology.hl7.org/CodeSystem/condition-category",
          "code": "encounter-diagnosis",
          "display": "Encounter Diagnosis"
        } ]
      } ],
      "code": {
        "coding": [ {
          "system": "http://snomed.info/sct",
          "code": "116288000",
          "display": "Paralytic stroke (disorder)"
        } ]
      },
      "subject": {
        "reference": "Patient/numer-EXM105-FHIR3"
      }
    },
    "request": {
      "method": "PUT",
      "url": "Condition/numer-EXM105-FHIR3-1"
    }
  }, {
    "resource": {
      "resourceType": "Encounter",
      "id": "numer-EXM105-FHIR3-2",
      "meta": {
        "profile": [ "http://hl7.org/fhir/us/core/StructureDefinition/us-core-encounter" ]
      },
      "status": "finished",
      "class": {
        "system": "http://terminology.hl7.org/CodeSystem/v3-ActCode",
        "code": "IMP",
        "display": "inpatient encounter"
      },
      "type": [ {
        "coding": [ {
          "system": "http://snomed.info/sct",
          "code": "32485007",
          "display": "Hospital admission (procedure)"
        } ]
      } ],
      "subject": {
        "reference": "Patient/numer-EXM105-FHIR3"
      },
      "period": {
        "start": "2019-08-21T00:00:00-06:00",
        "end": "2019-12-19T08:15:00-07:00"
      },
      "diagnosis": [ {
        "condition": {
          "reference": "Condition/numer-EXM105-FHIR3-1"
        },
        "role": {
          "coding": [ {
            "system": "http://hl7.org/fhir/diagnosis-role",
            "code": "billing",
            "display": "Billing"
          } ]
        },
        "rank": 1
      } ]
    },
    "request": {
      "method": "PUT",
      "url": "Encounter/numer-EXM105-FHIR3-2"
    }
  }, {
    "resource": {
      "resourceType": "ValueSet",
      "id": "2.16.840.1.113883.3.117.1.7.1.247",
      "url": "http://cts.nlm.nih.gov/fhir/ValueSet/2.16.840.1.113883.3.117.1.7.1.247",
      "title": "Ischemic Stroke",
      "status": "active",
      "publisher": "The Joint Commission",
      "compose": {
        "include": [ {
          "system": "http://snomed.info/sct",
          "version": "2019-03",
          "concept": [ {
            "code": "111297002",
            "display": "Nonparalytic stroke (disorder)"
          }, {
            "code": "116288000",
            "display": "Paralytic stroke (disorder)"
          }, {
            "code": "195185009",
            "display": "Cerebral infarct due to thrombosis of precerebral arteries (disorder)"
          }, {
            "code": "195186005",
            "display": "Cerebral infarction due to embolism of precerebral arteries (disorder)"
          }, {
            "code": "195189003",
            "display": "Cerebral infarction due to thrombosis of cerebral arteries (disorder)"
          }, {
            "code": "195190007",
            "display": "Cerebral infarction due to embolism of cerebral arteries (disorder)"
          }, {
            "code": "195212005",
            "display": "Brainstem stroke syndrome (disorder)"
          }, {
            "code": "195213000",
            "display": "Cerebellar stroke syndrome (disorder)"
          }, {
            "code": "195216008",
            "display": "Left sided cerebral hemisphere cerebrovascular accident (disorder)"
          }, {
            "code": "195217004",
            "display": "Right sided cerebral hemisphere cerebrovascular accident (disorder)"
          }, {
            "code": "195230003",
            "display": "Cerebral infarction due to cerebral venous thrombosis, non-pyogenic (disorder)"
          }, {
            "code": "230690007",
            "display": "Cerebrovascular accident (disorder)"
          }, {
            "code": "230691006",
            "display": "Cerebrovascular accident due to occlusion of cerebral artery (disorder)"
          }, {
            "code": "230692004",
            "display": "Infarction - precerebral (disorder)"
          }, {
            "code": "230693009",
            "display": "Anterior cerebral circulation infarction (disorder)"
          }, {
            "code": "230694003",
            "display": "Total anterior cerebral circulation infarction (disorder)"
          }, {
            "code": "230695002",
            "display": "Partial anterior cerebral circulation infarction (disorder)"
          }, {
            "code": "230696001",
            "display": "Posterior cerebral circulation infarction (disorder)"
          }, {
            "code": "230698000",
            "display": "Lacunar infarction (disorder)"
          }, {
            "code": "230699008",
            "display": "Pure motor lacunar infarction (disorder)"
          }, {
            "code": "230700009",
            "display": "Pure sensory lacunar infarction (disorder)"
          }, {
            "code": "230701008",
            "display": "Pure sensorimotor lacunar infarction (disorder)"
          }, {
            "code": "307363008",
            "display": "Multiple lacunar infarcts (disorder)"
          }, {
            "code": "426107000",
            "display": "Acute lacunar infarction (disorder)"
          } ]
        }, {
          "system": "http://hl7.org/fhir/sid/icd-10",
          "version": "2020",
          "concept": [ {
            "code": "I63.00",
            "display": "Cerebral infarction due to thrombosis of unspecified precerebral artery"
          }, {
            "code": "I63.011",
            "display": "Cerebral infarction due to thrombosis of right vertebral artery"
          }, {
            "code": "I63.012",
            "display": "Cerebral infarction due to thrombosis of left vertebral artery"
          }, {
            "code": "I63.013",
            "display": "Cerebral infarction due to thrombosis of bilateral vertebral arteries"
          }, {
            "code": "I63.019",
            "display": "Cerebral infarction due to thrombosis of unspecified vertebral artery"
          }, {
            "code": "I63.02",
            "display": "Cerebral infarction due to thrombosis of basilar artery"
          }, {
            "code": "I63.031",
            "display": "Cerebral infarction due to thrombosis of right carotid artery"
          }, {
            "code": "I63.032",
            "display": "Cerebral infarction due to thrombosis of left carotid artery"
          }, {
            "code": "I63.033",
            "display": "Cerebral infarction due to thrombosis of bilateral carotid arteries"
          }, {
            "code": "I63.039",
            "display": "Cerebral infarction due to thrombosis of unspecified carotid artery"
          }, {
            "code": "I63.09",
            "display": "Cerebral infarction due to thrombosis of other precerebral artery"
          }, {
            "code": "I63.10",
            "display": "Cerebral infarction due to embolism of unspecified precerebral artery"
          }, {
            "code": "I63.111",
            "display": "Cerebral infarction due to embolism of right vertebral artery"
          }, {
            "code": "I63.112",
            "display": "Cerebral infarction due to embolism of left vertebral artery"
          }, {
            "code": "I63.113",
            "display": "Cerebral infarction due to embolism of bilateral vertebral arteries"
          }, {
            "code": "I63.119",
            "display": "Cerebral infarction due to embolism of unspecified vertebral artery"
          }, {
            "code": "I63.12",
            "display": "Cerebral infarction due to embolism of basilar artery"
          }, {
            "code": "I63.131",
            "display": "Cerebral infarction due to embolism of right carotid artery"
          }, {
            "code": "I63.132",
            "display": "Cerebral infarction due to embolism of left carotid artery"
          }, {
            "code": "I63.133",
            "display": "Cerebral infarction due to embolism of bilateral carotid arteries"
          }, {
            "code": "I63.139",
            "display": "Cerebral infarction due to embolism of unspecified carotid artery"
          }, {
            "code": "I63.19",
            "display": "Cerebral infarction due to embolism of other precerebral artery"
          }, {
            "code": "I63.20",
            "display": "Cerebral infarction due to unspecified occlusion or stenosis of unspecified precerebral arteries"
          }, {
            "code": "I63.211",
            "display": "Cerebral infarction due to unspecified occlusion or stenosis of right vertebral artery"
          }, {
            "code": "I63.212",
            "display": "Cerebral infarction due to unspecified occlusion or stenosis of left vertebral artery"
          }, {
            "code": "I63.213",
            "display": "Cerebral infarction due to unspecified occlusion or stenosis of bilateral vertebral arteries"
          }, {
            "code": "I63.219",
            "display": "Cerebral infarction due to unspecified occlusion or stenosis of unspecified vertebral artery"
          }, {
            "code": "I63.22",
            "display": "Cerebral infarction due to unspecified occlusion or stenosis of basilar artery"
          }, {
            "code": "I63.231",
            "display": "Cerebral infarction due to unspecified occlusion or stenosis of right carotid arteries"
          }, {
            "code": "I63.232",
            "display": "Cerebral infarction due to unspecified occlusion or stenosis of left carotid arteries"
          }, {
            "code": "I63.233",
            "display": "Cerebral infarction due to unspecified occlusion or stenosis of bilateral carotid arteries"
          }, {
            "code": "I63.239",
            "display": "Cerebral infarction due to unspecified occlusion or stenosis of unspecified carotid artery"
          }, {
            "code": "I63.29",
            "display": "Cerebral infarction due to unspecified occlusion or stenosis of other precerebral arteries"
          }, {
            "code": "I63.30",
            "display": "Cerebral infarction due to thrombosis of unspecified cerebral artery"
          }, {
            "code": "I63.311",
            "display": "Cerebral infarction due to thrombosis of right middle cerebral artery"
          }, {
            "code": "I63.312",
            "display": "Cerebral infarction due to thrombosis of left middle cerebral artery"
          }, {
            "code": "I63.313",
            "display": "Cerebral infarction due to thrombosis of bilateral middle cerebral arteries"
          }, {
            "code": "I63.319",
            "display": "Cerebral infarction due to thrombosis of unspecified middle cerebral artery"
          }, {
            "code": "I63.321",
            "display": "Cerebral infarction due to thrombosis of right anterior cerebral artery"
          }, {
            "code": "I63.322",
            "display": "Cerebral infarction due to thrombosis of left anterior cerebral artery"
          }, {
            "code": "I63.323",
            "display": "Cerebral infarction due to thrombosis of bilateral anterior cerebral arteries"
          }, {
            "code": "I63.329",
            "display": "Cerebral infarction due to thrombosis of unspecified anterior cerebral artery"
          }, {
            "code": "I63.331",
            "display": "Cerebral infarction due to thrombosis of right posterior cerebral artery"
          }, {
            "code": "I63.332",
            "display": "Cerebral infarction due to thrombosis of left posterior cerebral artery"
          }, {
            "code": "I63.333",
            "display": "Cerebral infarction due to thrombosis of bilateral posterior cerebral arteries"
          }, {
            "code": "I63.339",
            "display": "Cerebral infarction due to thrombosis of unspecified posterior cerebral artery"
          }, {
            "code": "I63.341",
            "display": "Cerebral infarction due to thrombosis of right cerebellar artery"
          }, {
            "code": "I63.342",
            "display": "Cerebral infarction due to thrombosis of left cerebellar artery"
          }, {
            "code": "I63.343",
            "display": "Cerebral infarction due to thrombosis of bilateral cerebellar arteries"
          }, {
            "code": "I63.349",
            "display": "Cerebral infarction due to thrombosis of unspecified cerebellar artery"
          }, {
            "code": "I63.39",
            "display": "Cerebral infarction due to thrombosis of other cerebral artery"
          }, {
            "code": "I63.40",
            "display": "Cerebral infarction due to embolism of unspecified cerebral artery"
          }, {
            "code": "I63.411",
            "display": "Cerebral infarction due to embolism of right middle cerebral artery"
          }, {
            "code": "I63.412",
            "display": "Cerebral infarction due to embolism of left middle cerebral artery"
          }, {
            "code": "I63.413",
            "display": "Cerebral infarction due to embolism of bilateral middle cerebral arteries"
          }, {
            "code": "I63.419",
            "display": "Cerebral infarction due to embolism of unspecified middle cerebral artery"
          }, {
            "code": "I63.421",
            "display": "Cerebral infarction due to embolism of right anterior cerebral artery"
          }, {
            "code": "I63.422",
            "display": "Cerebral infarction due to embolism of left anterior cerebral artery"
          }, {
            "code": "I63.423",
            "display": "Cerebral infarction due to embolism of bilateral anterior cerebral arteries"
          }, {
            "code": "I63.429",
            "display": "Cerebral infarction due to embolism of unspecified anterior cerebral artery"
          }, {
            "code": "I63.431",
            "display": "Cerebral infarction due to embolism of right posterior cerebral artery"
          }, {
            "code": "I63.432",
            "display": "Cerebral infarction due to embolism of left posterior cerebral artery"
          }, {
            "code": "I63.433",
            "display": "Cerebral infarction due to embolism of bilateral posterior cerebral arteries"
          }, {
            "code": "I63.439",
            "display": "Cerebral infarction due to embolism of unspecified posterior cerebral artery"
          }, {
            "code": "I63.441",
            "display": "Cerebral infarction due to embolism of right cerebellar artery"
          }, {
            "code": "I63.442",
            "display": "Cerebral infarction due to embolism of left cerebellar artery"
          }, {
            "code": "I63.443",
            "display": "Cerebral infarction due to embolism of bilateral cerebellar arteries"
          }, {
            "code": "I63.449",
            "display": "Cerebral infarction due to embolism of unspecified cerebellar artery"
          }, {
            "code": "I63.49",
            "display": "Cerebral infarction due to embolism of other cerebral artery"
          }, {
            "code": "I63.50",
            "display": "Cerebral infarction due to unspecified occlusion or stenosis of unspecified cerebral artery"
          }, {
            "code": "I63.511",
            "display": "Cerebral infarction due to unspecified occlusion or stenosis of right middle cerebral artery"
          }, {
            "code": "I63.512",
            "display": "Cerebral infarction due to unspecified occlusion or stenosis of left middle cerebral artery"
          }, {
            "code": "I63.513",
            "display": "Cerebral infarction due to unspecified occlusion or stenosis of bilateral middle cerebral arteries"
          }, {
            "code": "I63.519",
            "display": "Cerebral infarction due to unspecified occlusion or stenosis of unspecified middle cerebral artery"
          }, {
            "code": "I63.521",
            "display": "Cerebral infarction due to unspecified occlusion or stenosis of right anterior cerebral artery"
          }, {
            "code": "I63.522",
            "display": "Cerebral infarction due to unspecified occlusion or stenosis of left anterior cerebral artery"
          }, {
            "code": "I63.523",
            "display": "Cerebral infarction due to unspecified occlusion or stenosis of bilateral anterior cerebral arteries"
          }, {
            "code": "I63.529",
            "display": "Cerebral infarction due to unspecified occlusion or stenosis of unspecified anterior cerebral artery"
          }, {
            "code": "I63.531",
            "display": "Cerebral infarction due to unspecified occlusion or stenosis of right posterior cerebral artery"
          }, {
            "code": "I63.532",
            "display": "Cerebral infarction due to unspecified occlusion or stenosis of left posterior cerebral artery"
          }, {
            "code": "I63.533",
            "display": "Cerebral infarction due to unspecified occlusion or stenosis of bilateral posterior cerebral arteries"
          }, {
            "code": "I63.539",
            "display": "Cerebral infarction due to unspecified occlusion or stenosis of unspecified posterior cerebral artery"
          }, {
            "code": "I63.541",
            "display": "Cerebral infarction due to unspecified occlusion or stenosis of right cerebellar artery"
          }, {
            "code": "I63.542",
            "display": "Cerebral infarction due to unspecified occlusion or stenosis of left cerebellar artery"
          }, {
            "code": "I63.543",
            "display": "Cerebral infarction due to unspecified occlusion or stenosis of bilateral cerebellar arteries"
          }, {
            "code": "I63.549",
            "display": "Cerebral infarction due to unspecified occlusion or stenosis of unspecified cerebellar artery"
          }, {
            "code": "I63.59",
            "display": "Cerebral infarction due to unspecified occlusion or stenosis of other cerebral artery"
          }, {
            "code": "I63.6",
            "display": "Cerebral infarction due to cerebral venous thrombosis, nonpyogenic"
          }, {
            "code": "I63.81",
            "display": "Other cerebral infarction due to occlusion or stenosis of small artery"
          }, {
            "code": "I63.89",
            "display": "Other cerebral infarction"
          }, {
            "code": "I63.9",
            "display": "Cerebral infarction, unspecified"
          } ]
        } ]
      }
    },
    "request": {
      "method": "PUT",
      "url": "ValueSet/2.16.840.1.113883.3.117.1.7.1.247"
    }
  }, {
    "resource": {
      "resourceType": "ValueSet",
      "id": "2.16.840.1.113883.3.117.1.7.1.423",
      "url": "http://cts.nlm.nih.gov/fhir/ValueSet/2.16.840.1.113883.3.117.1.7.1.423",
      "title": "Statin Allergen",
      "status": "active",
      "publisher": "The Joint Commission",
      "compose": {
        "include": [ {
          "system": "http://www.nlm.nih.gov/research/umls/rxnorm",
          "version": "2019-12",
          "concept": [ {
            "code": "301542",
            "display": "rosuvastatin"
          }, {
            "code": "36567",
            "display": "Simvastatin"
          }, {
            "code": "41127",
            "display": "fluvastatin"
          }, {
            "code": "42463",
            "display": "Pravastatin"
          }, {
            "code": "6472",
            "display": "Lovastatin"
          }, {
            "code": "83367",
            "display": "atorvastatin"
          }, {
            "code": "861634",
            "display": "pitavastatin"
          } ]
        } ]
      }
    },
    "request": {
      "method": "PUT",
      "url": "ValueSet/2.16.840.1.113883.3.117.1.7.1.423"
    }
  }, {
    "resource": {
      "resourceType": "Encounter",
      "id": "denomex-EXM105-FHIR3-2",
      "meta": {
        "profile": [ "http://hl7.org/fhir/us/core/StructureDefinition/us-core-encounter" ]
      },
      "status": "finished",
      "class": {
        "system": "http://terminology.hl7.org/CodeSystem/v3-ActCode",
        "code": "IMP",
        "display": "inpatient encounter"
      },
      "type": [ {
        "coding": [ {
          "system": "http://snomed.info/sct",
          "code": "32485007",
          "display": "Hospital admission (procedure)"
        } ]
      } ],
      "subject": {
        "reference": "Patient/denomex-EXM105-FHIR3"
      },
      "period": {
        "start": "2019-08-21T00:00:00-06:00",
        "end": "2019-12-19T08:15:00-07:00"
      },
      "diagnosis": [ {
        "condition": {
          "reference": "Condition/denomex-EXM105-FHIR3-1"
        },
        "role": {
          "coding": [ {
            "system": "http://hl7.org/fhir/diagnosis-role",
            "code": "billing",
            "display": "Billing"
          } ]
        },
        "rank": 1
      } ],
      "hospitalization": {
        "dischargeDisposition": {
          "coding": [ {
            "system": "http://snomed.info/sct",
            "code": "306701001",
            "display": "Discharge to community hospital (procedure)"
          } ]
        }
      }
    },
    "request": {
      "method": "PUT",
      "url": "Encounter/denomex-EXM105-FHIR3-2"
    }
  }, {
    "resource": {
      "resourceType": "ValueSet",
      "id": "2.16.840.1.113883.3.117.1.7.1.424",
      "url": "http://cts.nlm.nih.gov/fhir/ValueSet/2.16.840.1.113883.3.117.1.7.1.424",
      "identifier": [ {
        "system": "urn:ietf:rfc:3986",
        "value": "2.16.840.1.113883.3.117.1.7.1.424"
      } ],
      "version": "20170726",
      "name": "Non-ElectiveInpatientEncounter",
      "title": "Non-Elective Inpatient Encounter",
      "status": "active",
      "publisher": "NLM",
      "compose": {
        "include": [ {
          "system": "http://snomed.info/sct",
          "version": "2018-03",
          "concept": [ {
            "code": "183452005",
            "display": "Emergency hospital admission (procedure)"
          }, {
            "code": "32485007",
            "display": "Hospital admission (procedure)"
          } ]
        } ]
      }
    },
    "request": {
      "method": "PUT",
      "url": "ValueSet/2.16.840.1.113883.3.117.1.7.1.424"
    }
  }, {
    "resource": {
      "resourceType": "Condition",
      "id": "denomex-EXM105-FHIR3-1",
      "meta": {
        "profile": [ "http://hl7.org/fhir/us/core/StructureDefinition/us-core-condition" ]
      },
      "verificationStatus": "confirmed",
      "category": [ {
        "coding": [ {
          "system": "http://terminology.hl7.org/CodeSystem/condition-category",
          "code": "encounter-diagnosis",
          "display": "Encounter Diagnosis"
        } ]
      } ],
      "code": {
        "coding": [ {
          "system": "http://snomed.info/sct",
          "code": "116288000",
          "display": "Paralytic stroke (disorder)"
        } ]
      },
      "subject": {
        "reference": "Patient/denomex-EXM105-FHIR3"
      }
    },
    "request": {
      "method": "PUT",
      "url": "Condition/denomex-EXM105-FHIR3-1"
    }
  }, {
    "resource": {
      "resourceType": "Patient",
      "id": "numer-EXM105-FHIR3",
      "meta": {
        "profile": [ "http://hl7.org/fhir/us/core/StructureDefinition/us-core-patient" ]
      },
      "extension": [ {
        "url": "http://hl7.org/fhir/us/core/StructureDefinition/us-core-race",
        "extension": [ {
          "url": "ombCategory",
          "valueCoding": {
            "system": "urn:oid:2.16.840.1.113883.6.238",
            "code": "2106-3",
            "display": "White"
          }
        } ]
      }, {
        "url": "http://hl7.org/fhir/us/core/StructureDefinition/us-core-ethnicity",
        "extension": [ {
          "url": "ombCategory",
          "valueCoding": {
            "system": "urn:oid:2.16.840.1.113883.6.238",
            "code": "2186-5",
            "display": "Not Hispanic or Latino"
          }
        } ]
      } ],
      "identifier": [ {
        "use": "usual",
        "type": {
          "coding": [ {
            "system": "http://terminology.hl7.org/CodeSystem/v2-0203",
            "code": "MR",
            "display": "Medical Record Number"
          } ]
        },
        "system": "http://hospital.smarthealthit.org",
        "value": "9999999911"
      } ],
      "name": [ {
        "family": "Jones",
        "given": [ "Louise" ]
      } ],
      "gender": "female",
      "birthDate": "1971-11-21"
    },
    "request": {
      "method": "PUT",
      "url": "Patient/numer-EXM105-FHIR3"
    }
  }, {
    "resource": {
      "resourceType": "ValueSet",
      "id": "2.16.840.1.113883.3.117.1.7.1.207",
      "url": "http://cts.nlm.nih.gov/fhir/ValueSet/2.16.840.1.113883.3.117.1.7.1.207",
      "identifier": [ {
        "system": "urn:ietf:rfc:3986",
        "value": "2.16.840.1.113883.3.117.1.7.1.207"
      } ],
      "version": "20170725",
      "name": "DischargedtoHealthCareFacilityforHospiceCare",
      "title": "Discharged to Health Care Facility for Hospice Care",
      "status": "active",
      "publisher": "NLM",
      "compose": {
        "include": [ {
          "system": "http://snomed.info/sct",
          "version": "2018-03",
          "concept": [ {
            "code": "428371000124100",
            "display": "Discharge to healthcare facility for hospice care (procedure)"
          } ]
        } ]
      }
    },
    "request": {
      "method": "PUT",
      "url": "ValueSet/2.16.840.1.113883.3.117.1.7.1.207"
    }
  }, {
    "resource": {
      "resourceType": "MedicationRequest",
      "id": "denomex-EXM105-FHIR3-5",
      "status": "completed",
      "intent": "order",
      "category": {
        "coding": [ {
          "system": "http://terminology.hl7.org/CodeSystem/medicationrequest-category",
          "code": "discharge",
          "display": "Discharge"
        } ]
      },
      "medicationCodeableConcept": {
        "coding": [ {
          "system": "http://www.nlm.nih.gov/research/umls/rxnorm",
          "code": "197903",
          "display": "Lovastatin 10 MG Oral Tablet"
        } ]
      },
      "subject": {
        "reference": "Patient/denomex-EXM105-FHIR3"
      },
      "authoredOn": "2019-12-19T08:00:00-07:00"
    },
    "request": {
      "method": "PUT",
      "url": "MedicationRequest/denomex-EXM105-FHIR3-5"
    }
  }, {
    "resource": {
      "resourceType": "ValueSet",
      "id": "2.16.840.1.113883.3.117.1.7.1.209",
      "url": "http://cts.nlm.nih.gov/fhir/ValueSet/2.16.840.1.113883.3.117.1.7.1.209",
      "identifier": [ {
        "system": "urn:ietf:rfc:3986",
        "value": "2.16.840.1.113883.3.117.1.7.1.209"
      } ],
      "version": "20170725",
      "name": "DischargedtoHomeforHospiceCare",
      "title": "Discharged to Home for Hospice Care",
      "status": "active",
      "publisher": "NLM",
      "compose": {
        "include": [ {
          "system": "http://snomed.info/sct",
          "version": "2018-03",
          "concept": [ {
            "code": "428361000124107",
            "display": "Discharge to home for hospice care (procedure)"
          } ]
        } ]
      }
    },
    "request": {
      "method": "PUT",
      "url": "ValueSet/2.16.840.1.113883.3.117.1.7.1.209"
    }
  }, {
    "resource": {
      "resourceType": "ValueSet",
      "id": "2.16.840.1.113883.3.117.1.7.1.308",
      "url": "http://cts.nlm.nih.gov/fhir/ValueSet/2.16.840.1.113883.3.117.1.7.1.308",
      "identifier": [ {
        "system": "urn:ietf:rfc:3986",
        "value": "2.16.840.1.113883.3.117.1.7.1.308"
      } ],
      "version": "20170726",
      "name": "LeftAgainstMedicalAdvice",
      "title": "Left Against Medical Advice",
      "status": "active",
      "publisher": "NLM",
      "compose": {
        "include": [ {
          "system": "http://snomed.info/sct",
          "version": "2018-03",
          "concept": [ {
            "code": "445060000",
            "display": "Left against medical advice (finding)"
          } ]
        } ]
      }
    },
    "request": {
      "method": "PUT",
      "url": "ValueSet/2.16.840.1.113883.3.117.1.7.1.308"
    }
  }, {
    "resource": {
      "resourceType": "ValueSet",
      "id": "2.16.840.1.113883.3.117.1.7.1.309",
      "url": "http://cts.nlm.nih.gov/fhir/ValueSet/2.16.840.1.113883.3.117.1.7.1.309",
      "identifier": [ {
        "system": "urn:ietf:rfc:3986",
        "value": "2.16.840.1.113883.3.117.1.7.1.309"
      } ],
      "version": "20170726",
      "name": "PatientExpired",
      "title": "Patient Expired",
      "status": "active",
      "publisher": "NLM",
      "compose": {
        "include": [ {
          "system": "http://snomed.info/sct",
          "version": "2018-03",
          "concept": [ {
            "code": "371828006",
            "display": "Patient deceased during stay (discharge status = dead) (finding)"
          } ]
        } ]
      }
    },
    "request": {
      "method": "PUT",
      "url": "ValueSet/2.16.840.1.113883.3.117.1.7.1.309"
    }
  }, {
    "resource": {
      "resourceType": "ValueSet",
      "id": "2.16.840.1.113762.1.4.1",
      "url": "http://cts.nlm.nih.gov/fhir/ValueSet/2.16.840.1.113762.1.4.1",
      "identifier": [ {
        "system": "urn:ietf:rfc:3986",
        "value": "2.16.840.1.113762.1.4.1"
      } ],
      "version": "20150331",
      "name": "ONCAdministrativeSex",
      "title": "ONC Administrative Sex",
      "status": "active",
      "publisher": "NLM",
      "compose": {
        "include": [ {
          "system": "http://hl7.org/fhir/v3/AdministrativeGender",
          "version": "HL7V3.0_2017-07",
          "concept": [ {
            "code": "F",
            "display": "Female"
          }, {
            "code": "M",
            "display": "Male"
          } ]
        } ]
      }
    },
    "request": {
      "method": "PUT",
      "url": "ValueSet/2.16.840.1.113762.1.4.1"
    }
  }, {
    "resource": {
      "resourceType": "Patient",
      "id": "denom-EXM105-FHIR3",
      "meta": {
        "profile": [ "http://hl7.org/fhir/us/core/StructureDefinition/us-core-patient" ]
      },
      "extension": [ {
        "url": "http://hl7.org/fhir/us/core/StructureDefinition/us-core-race",
        "extension": [ {
          "url": "ombCategory",
          "valueCoding": {
            "system": "urn:oid:2.16.840.1.113883.6.238",
            "code": "2054-5",
            "display": "Black or African American"
          }
        } ]
      }, {
        "url": "http://hl7.org/fhir/us/core/StructureDefinition/us-core-ethnicity",
        "extension": [ {
          "url": "ombCategory",
          "valueCoding": {
            "system": "urn:oid:2.16.840.1.113883.6.238",
            "code": "2135-2",
            "display": "Hispanic or Latino"
          }
        } ]
      } ],
      "identifier": [ {
        "use": "usual",
        "type": {
          "coding": [ {
            "system": "http://terminology.hl7.org/CodeSystem/v2-0203",
            "code": "MR",
            "display": "Medical Record Number"
          } ]
        },
        "system": "http://hospital.smarthealthit.org",
        "value": "9999999910"
      } ],
      "name": [ {
        "family": "Jones",
        "given": [ "Rick" ]
      } ],
      "gender": "male",
      "birthDate": "1955-11-05"
    },
    "request": {
      "method": "PUT",
      "url": "Patient/denom-EXM105-FHIR3"
    }
  }, {
    "resource": {
      "resourceType": "ValueSet",
      "id": "2.16.840.1.113883.3.117.1.7.1.93",
      "url": "http://cts.nlm.nih.gov/fhir/ValueSet/2.16.840.1.113883.3.117.1.7.1.93",
      "title": "Patient Refusal",
      "status": "active",
      "publisher": "The Joint Commission",
      "compose": {
        "include": [ {
          "system": "http://snomed.info/sct",
          "version": "2019-03",
          "concept": [ {
            "code": "105480006",
            "display": "Refusal of treatment by patient (situation)"
          }, {
            "code": "182890002",
            "display": "Patient requests alternative treatment (finding)"
          }, {
            "code": "182895007",
            "display": "Drug declined by patient (situation)"
          }, {
            "code": "182896008",
            "display": "Drug declined by patient - dislikes taste (situation)"
          }, {
            "code": "182897004",
            "display": "Drug declined by patient - side effects (situation)"
          }, {
            "code": "182898009",
            "display": "Drug declined by patient - inconvenient (situation)"
          }, {
            "code": "182900006",
            "display": "Drug declined by patient - patient beliefs (situation)"
          }, {
            "code": "182901005",
            "display": "Drug declined by patient - alternative therapy (situation)"
          }, {
            "code": "182903008",
            "display": "Drug declined by patient - reason unknown (situation)"
          }, {
            "code": "183944003",
            "display": "Procedure refused (situation)"
          }, {
            "code": "183945002",
            "display": "Procedure refused for religious reason (situation)"
          }, {
            "code": "183946001",
            "display": "Procedure refused - uncooperative (situation)"
          }, {
            "code": "183947005",
            "display": "Refused procedure - after thought (situation)"
          }, {
            "code": "183948000",
            "display": "Refused procedure - parent's wish (situation)"
          }, {
            "code": "275936005",
            "display": "Patient noncompliance - general (situation)"
          }, {
            "code": "371138003",
            "display": "Refusal of treatment by parents (situation)"
          }, {
            "code": "406149000",
            "display": "Medication refused (situation)"
          }, {
            "code": "413312003",
            "display": "Patient non-compliant - refused service (situation)"
          }, {
            "code": "416432009",
            "display": "Procedure not wanted (situation)"
          }, {
            "code": "443390004",
            "display": "Refused (qualifier value)"
          }, {
            "code": "609589008",
            "display": "Refused by parents of subject (qualifier value)"
          } ]
        } ]
      }
    },
    "request": {
      "method": "PUT",
      "url": "ValueSet/2.16.840.1.113883.3.117.1.7.1.93"
    }
  }, {
    "resource": {
      "resourceType": "ValueSet",
      "id": "2.16.840.1.114222.4.11.837",
      "url": "http://cts.nlm.nih.gov/fhir/ValueSet/2.16.840.1.114222.4.11.837",
      "identifier": [ {
        "system": "urn:ietf:rfc:3986",
        "value": "2.16.840.1.114222.4.11.837"
      } ],
      "version": "20121025",
      "name": "Ethnicity",
      "title": "Ethnicity",
      "status": "active",
      "publisher": "NLM",
      "compose": {
        "include": [ {
          "system": "http://www.cdc.gov/phin/resources/vocabulary/index.html",
          "version": "1.2",
          "concept": [ {
            "code": "2135-2",
            "display": "Hispanic or Latino"
          }, {
            "code": "2186-5",
            "display": "Not Hispanic or Latino"
          } ]
        } ]
      }
    },
    "request": {
      "method": "PUT",
      "url": "ValueSet/2.16.840.1.114222.4.11.837"
    }
  }, {
    "resource": {
      "resourceType": "ValueSet",
      "id": "2.16.840.1.114222.4.11.3591",
      "url": "http://cts.nlm.nih.gov/fhir/ValueSet/2.16.840.1.114222.4.11.3591",
      "identifier": [ {
        "system": "urn:ietf:rfc:3986",
        "value": "2.16.840.1.114222.4.11.3591"
      } ],
      "version": "20180718",
      "name": "Payer",
      "title": "Payer",
      "status": "active",
      "publisher": "NLM",
      "compose": {
        "include": [ {
          "system": "http://www.phdsc.org/standards/pdfs/SourceofPaymentTypologyVersion6FINALSeptember2015.pdf",
          "version": "8.0",
          "concept": [ {
            "code": "1",
            "display": "MEDICARE"
          }, {
            "code": "11",
            "display": "Medicare (Managed Care)"
          }, {
            "code": "111",
            "display": "Medicare HMO"
          }, {
            "code": "112",
            "display": "Medicare PPO"
          }, {
            "code": "113",
            "display": "Medicare POS"
          }, {
            "code": "119",
            "display": "Medicare Managed Care Other"
          }, {
            "code": "12",
            "display": "Medicare (Non-managed Care)"
          }, {
            "code": "121",
            "display": "Medicare FFS"
          }, {
            "code": "122",
            "display": "Medicare Drug Benefit"
          }, {
            "code": "123",
            "display": "Medicare Medical Savings Account (MSA)"
          }, {
            "code": "129",
            "display": "Medicare Non-managed Care Other"
          }, {
            "code": "13",
            "display": "Medicare Hospice"
          }, {
            "code": "14",
            "display": "Dual Eligibility Medicare/Medicaid Organization"
          }, {
            "code": "19",
            "display": "Medicare Other"
          }, {
            "code": "191",
            "display": "Medicare Pharmacy Benefit Manager"
          }, {
            "code": "2",
            "display": "MEDICAID"
          }, {
            "code": "21",
            "display": "Medicaid (Managed Care)"
          }, {
            "code": "211",
            "display": "Medicaid HMO"
          }, {
            "code": "212",
            "display": "Medicaid PPO"
          }, {
            "code": "213",
            "display": "Medicaid PCCM (Primary Care Case Management)"
          }, {
            "code": "219",
            "display": "Medicaid Managed Care Other"
          }, {
            "code": "22",
            "display": "Medicaid (Non-managed Care Plan)"
          }, {
            "code": "23",
            "display": "Medicaid/SCHIP"
          }, {
            "code": "25",
            "display": "Medicaid - Out of State"
          }, {
            "code": "26",
            "display": "Medicaid -- Long Term Care"
          }, {
            "code": "29",
            "display": "Medicaid Other"
          }, {
            "code": "291",
            "display": "Medicaid Pharmacy Benefit Manager"
          }, {
            "code": "299",
            "display": "Medicaid - Dental"
          }, {
            "code": "3",
            "display": "OTHER GOVERNMENT (Federal/State/Local) (excluding Department of Corrections)"
          }, {
            "code": "31",
            "display": "Department of Defense"
          }, {
            "code": "311",
            "display": "TRICARE (CHAMPUS)"
          }, {
            "code": "3111",
            "display": "TRICARE Prime--HMO"
          }, {
            "code": "3112",
            "display": "TRICARE Extra--PPO"
          }, {
            "code": "3113",
            "display": "TRICARE Standard - Fee For Service"
          }, {
            "code": "3114",
            "display": "TRICARE For Life--Medicare Supplement"
          }, {
            "code": "3115",
            "display": "TRICARE Reserve Select"
          }, {
            "code": "3116",
            "display": "Uniformed Services Family Health Plan (USFHP) -- HMO"
          }, {
            "code": "3119",
            "display": "Department of Defense - (other)"
          }, {
            "code": "312",
            "display": "Military Treatment Facility"
          }, {
            "code": "3121",
            "display": "Enrolled Prime--HMO"
          }, {
            "code": "3122",
            "display": "Non-enrolled Space Available"
          }, {
            "code": "3123",
            "display": "TRICARE For Life (TFL)"
          }, {
            "code": "313",
            "display": "Dental --Stand Alone"
          }, {
            "code": "32",
            "display": "Department of Veterans Affairs"
          }, {
            "code": "321",
            "display": "Veteran care--Care provided to Veterans"
          }, {
            "code": "3211",
            "display": "Direct Care--Care provided in VA facilities"
          }, {
            "code": "3212",
            "display": "Indirect Care--Care provided outside VA facilities"
          }, {
            "code": "32121",
            "display": "Fee Basis"
          }, {
            "code": "32122",
            "display": "Foreign Fee/Foreign Medical Program (FMP)"
          }, {
            "code": "32123",
            "display": "Contract Nursing Home/Community Nursing Home"
          }, {
            "code": "32124",
            "display": "State Veterans Home"
          }, {
            "code": "32125",
            "display": "Sharing Agreements"
          }, {
            "code": "32126",
            "display": "Other Federal Agency"
          }, {
            "code": "32127",
            "display": "Dental Care"
          }, {
            "code": "32128",
            "display": "Vision Care"
          }, {
            "code": "322",
            "display": "Non-veteran care"
          }, {
            "code": "3221",
            "display": "Civilian Health and Medical Program for the VA (CHAMPVA)"
          }, {
            "code": "3222",
            "display": "Spina Bifida Health Care Program (SB)"
          }, {
            "code": "3223",
            "display": "Children of Women Vietnam Veterans (CWVV)"
          }, {
            "code": "3229",
            "display": "Other non-veteran care"
          }, {
            "code": "33",
            "display": "Indian Health Service or Tribe"
          }, {
            "code": "331",
            "display": "Indian Health Service -- Regular"
          }, {
            "code": "332",
            "display": "Indian Health Service -- Contract"
          }, {
            "code": "333",
            "display": "Indian Health Service - Managed Care"
          }, {
            "code": "334",
            "display": "Indian Tribe - Sponsored Coverage"
          }, {
            "code": "34",
            "display": "HRSA Program"
          }, {
            "code": "341",
            "display": "Title V (MCH Block Grant)"
          }, {
            "code": "342",
            "display": "Migrant Health Program"
          }, {
            "code": "343",
            "display": "Ryan White Act"
          }, {
            "code": "349",
            "display": "Other"
          }, {
            "code": "35",
            "display": "Black Lung"
          }, {
            "code": "36",
            "display": "State Government"
          }, {
            "code": "361",
            "display": "State SCHIP program (codes for individual states)"
          }, {
            "code": "362",
            "display": "Specific state programs (list/ local code)"
          }, {
            "code": "369",
            "display": "State, not otherwise specified (other state)"
          }, {
            "code": "37",
            "display": "Local Government"
          }, {
            "code": "371",
            "display": "Local - Managed care"
          }, {
            "code": "3711",
            "display": "HMO"
          }, {
            "code": "3712",
            "display": "PPO"
          }, {
            "code": "3713",
            "display": "POS"
          }, {
            "code": "372",
            "display": "FFS/Indemnity"
          }, {
            "code": "379",
            "display": "Local, not otherwise specified (other local, county)"
          }, {
            "code": "38",
            "display": "Other Government (Federal, State, Local not specified)"
          }, {
            "code": "381",
            "display": "Federal, State, Local not specified managed care"
          }, {
            "code": "3811",
            "display": "Federal, State, Local not specified - HMO"
          }, {
            "code": "3812",
            "display": "Federal, State, Local not specified - PPO"
          }, {
            "code": "3813",
            "display": "Federal, State, Local not specified - POS"
          }, {
            "code": "3819",
            "display": "Federal, State, Local not specified - not specified managed care"
          }, {
            "code": "382",
            "display": "Federal, State, Local not specified - FFS"
          }, {
            "code": "389",
            "display": "Federal, State, Local not specified - Other"
          }, {
            "code": "39",
            "display": "Other Federal"
          }, {
            "code": "391",
            "display": "Federal Employee Health Plan - Use when known"
          }, {
            "code": "4",
            "display": "DEPARTMENTS OF CORRECTIONS"
          }, {
            "code": "41",
            "display": "Corrections Federal"
          }, {
            "code": "42",
            "display": "Corrections State"
          }, {
            "code": "43",
            "display": "Corrections Local"
          }, {
            "code": "44",
            "display": "Corrections Unknown Level"
          }, {
            "code": "5",
            "display": "PRIVATE HEALTH INSURANCE"
          }, {
            "code": "51",
            "display": "Managed Care (Private)"
          }, {
            "code": "511",
            "display": "Commercial Managed Care - HMO"
          }, {
            "code": "512",
            "display": "Commercial Managed Care - PPO"
          }, {
            "code": "513",
            "display": "Commercial Managed Care - POS"
          }, {
            "code": "514",
            "display": "Exclusive Provider Organization"
          }, {
            "code": "515",
            "display": "Gatekeeper PPO (GPPO)"
          }, {
            "code": "516",
            "display": "Commercial Managed Care - Pharmacy Benefit Manager"
          }, {
            "code": "517",
            "display": "Commercial Managed Care - Dental"
          }, {
            "code": "519",
            "display": "Managed Care, Other (non HMO)"
          }, {
            "code": "52",
            "display": "Private Health Insurance - Indemnity"
          }, {
            "code": "521",
            "display": "Commercial Indemnity"
          }, {
            "code": "522",
            "display": "Self-insured (ERISA) Administrative Services Only (ASO) plan"
          }, {
            "code": "523",
            "display": "Medicare supplemental policy (as second payer)"
          }, {
            "code": "524",
            "display": "Indemnity Insurance - Dental"
          }, {
            "code": "529",
            "display": "Private health insurance--other commercial Indemnity"
          }, {
            "code": "53",
            "display": "Managed Care (private) or private health insurance (indemnity), not otherwise specified"
          }, {
            "code": "54",
            "display": "Organized Delivery System"
          }, {
            "code": "55",
            "display": "Small Employer Purchasing Group"
          }, {
            "code": "56",
            "display": "Specialized Stand Alone Plan"
          }, {
            "code": "561",
            "display": "Dental"
          }, {
            "code": "562",
            "display": "Vision"
          }, {
            "code": "59",
            "display": "Other Private Insurance"
          }, {
            "code": "6",
            "display": "BLUE CROSS/BLUE SHIELD"
          }, {
            "code": "61",
            "display": "BC Managed Care"
          }, {
            "code": "611",
            "display": "BC Managed Care -- HMO"
          }, {
            "code": "612",
            "display": "BC Managed Care -- PPO"
          }, {
            "code": "613",
            "display": "BC Managed Care -- POS"
          }, {
            "code": "614",
            "display": "BC Managed Care - Dental"
          }, {
            "code": "619",
            "display": "BC Managed Care -- Other"
          }, {
            "code": "62",
            "display": "BC Insurance Indemnity"
          }, {
            "code": "621",
            "display": "BC Indemnity"
          }, {
            "code": "622",
            "display": "BC Self-insured (ERISA) Administrative Services Only (ASO)Plan"
          }, {
            "code": "623",
            "display": "BC Medicare Supplemental Plan"
          }, {
            "code": "629",
            "display": "BC Indemnity - Dental"
          }, {
            "code": "7",
            "display": "MANAGED CARE, UNSPECIFIED (to be used only if one can't distinguish public from private)"
          }, {
            "code": "71",
            "display": "HMO"
          }, {
            "code": "72",
            "display": "PPO"
          }, {
            "code": "73",
            "display": "POS"
          }, {
            "code": "79",
            "display": "Other Managed Care"
          }, {
            "code": "8",
            "display": "NO PAYMENT from an Organization/Agency/Program/Private Payer Listed"
          }, {
            "code": "81",
            "display": "Self-pay (Includes applicants for insurance and Medicaid applicants)"
          }, {
            "code": "82",
            "display": "No Charge"
          }, {
            "code": "821",
            "display": "Charity"
          }, {
            "code": "822",
            "display": "Professional Courtesy"
          }, {
            "code": "823",
            "display": "Research/Clinical Trial"
          }, {
            "code": "83",
            "display": "Refusal to Pay/Bad Debt"
          }, {
            "code": "84",
            "display": "Hill Burton Free Care"
          }, {
            "code": "85",
            "display": "Research/Donor"
          }, {
            "code": "89",
            "display": "No Payment, Other"
          }, {
            "code": "9",
            "display": "MISCELLANEOUS/OTHER"
          }, {
            "code": "91",
            "display": "Foreign National"
          }, {
            "code": "92",
            "display": "Other (Non-government)"
          }, {
            "code": "93",
            "display": "Disability Insurance"
          }, {
            "code": "94",
            "display": "Long-term Care Insurance"
          }, {
            "code": "95",
            "display": "Worker's Compensation"
          }, {
            "code": "951",
            "display": "Worker's Comp HMO"
          }, {
            "code": "953",
            "display": "Worker's Comp Fee-for-Service"
          }, {
            "code": "954",
            "display": "Worker's Comp Other Managed Care"
          }, {
            "code": "959",
            "display": "Worker's Comp, Other unspecified"
          }, {
            "code": "96",
            "display": "Auto Insurance (includes no fault)"
          }, {
            "code": "97",
            "display": "Legal Liability / Liability Insurance"
          }, {
            "code": "98",
            "display": "Other specified but not otherwise classifiable (includes Hospice - Unspecified plan)"
          }, {
            "code": "99",
            "display": "No Typology Code available for payment source"
          }, {
            "code": "9999",
            "display": "Unavailable / No Payer Specified / Blank"
          } ]
        } ]
      }
    },
    "request": {
      "method": "PUT",
      "url": "ValueSet/2.16.840.1.114222.4.11.3591"
    }
  }, {
    "resource": {
      "resourceType": "MeasureReport",
      "id": "measurereport-numer-EXM105-FHIR3",
      "contained": [ {
        "resourceType": "Bundle",
        "id": "6be0c760-7a1f-48ad-9e88-7698f751ab24",
        "type": "collection",
        "entry": [ {
          "fullUrl": "4df519a4-9665-4129-b975-cd32bbab869d",
          "resource": {
            "resourceType": "List",
            "id": "4df519a4-9665-4129-b975-cd32bbab869d",
            "title": "initial-population",
            "entry": [ {
              "item": {
                "reference": "numer-EXM105-FHIR3-1"
              }
            }, {
              "item": {
                "reference": "numer-EXM105-FHIR3-2"
              }
            }, {
              "item": {
                "reference": "numer-EXM105-FHIR3"
              }
            } ]
          }
        }, {
          "fullUrl": "88ef9c76-51b2-4b11-ac8e-4630c441e87a",
          "resource": {
            "resourceType": "List",
            "id": "88ef9c76-51b2-4b11-ac8e-4630c441e87a",
            "title": "numerator",
            "entry": [ {
              "item": {
                "reference": "numer-EXM105-FHIR3-5"
              }
            } ]
          }
        }, {
          "fullUrl": "794d5145-c352-4707-877b-adfd25905b34",
          "resource": {
            "resourceType": "List",
            "id": "794d5145-c352-4707-877b-adfd25905b34",
            "title": "denominator",
            "entry": [ {
              "item": {
                "reference": "numer-EXM105-FHIR3-1"
              }
            } ]
          }
        }, {
          "fullUrl": "Condition/numer-EXM105-FHIR3-1",
          "resource": {
            "resourceType": "Condition",
            "id": "numer-EXM105-FHIR3-1",
            "meta": {
              "profile": [ "http://hl7.org/fhir/us/core/StructureDefinition/us-core-condition" ]
            },
            "verificationStatus": "confirmed",
            "category": [ {
              "coding": [ {
                "system": "http://terminology.hl7.org/CodeSystem/condition-category",
                "code": "encounter-diagnosis",
                "display": "Encounter Diagnosis"
              } ]
            } ],
            "code": {
              "coding": [ {
                "system": "http://snomed.info/sct",
                "code": "116288000",
                "display": "Paralytic stroke (disorder)"
              } ]
            },
            "subject": {
              "reference": "Patient/numer-EXM105-FHIR3"
            }
          }
        }, {
          "fullUrl": "Encounter/numer-EXM105-FHIR3-2",
          "resource": {
            "resourceType": "Encounter",
            "id": "numer-EXM105-FHIR3-2",
            "meta": {
              "profile": [ "http://hl7.org/fhir/us/core/StructureDefinition/us-core-encounter" ]
            },
            "status": "finished",
            "class": {
              "system": "http://terminology.hl7.org/CodeSystem/v3-ActCode",
              "code": "IMP",
              "display": "inpatient encounter"
            },
            "type": [ {
              "coding": [ {
                "system": "http://snomed.info/sct",
                "code": "32485007",
                "display": "Hospital admission (procedure)"
              } ]
            } ],
            "subject": {
              "reference": "Patient/numer-EXM105-FHIR3"
            },
            "period": {
              "start": "2019-08-21T00:00:00-06:00",
              "end": "2019-12-19T08:15:00-07:00"
            },
            "diagnosis": [ {
              "condition": {
                "reference": "Condition/numer-EXM105-FHIR3-1"
              },
              "role": {
                "coding": [ {
                  "system": "http://hl7.org/fhir/diagnosis-role",
                  "code": "billing",
                  "display": "Billing"
                } ]
              },
              "rank": 1
            } ]
          }
        }, {
          "fullUrl": "Patient/numer-EXM105-FHIR3",
          "resource": {
            "resourceType": "Patient",
            "id": "numer-EXM105-FHIR3",
            "meta": {
              "profile": [ "http://hl7.org/fhir/us/core/StructureDefinition/us-core-patient" ]
            },
            "extension": [ {
              "url": "http://hl7.org/fhir/us/core/StructureDefinition/us-core-race",
              "extension": [ {
                "url": "ombCategory",
                "valueCoding": {
                  "system": "urn:oid:2.16.840.1.113883.6.238",
                  "code": "2106-3",
                  "display": "White"
                }
              } ]
            }, {
              "url": "http://hl7.org/fhir/us/core/StructureDefinition/us-core-ethnicity",
              "extension": [ {
                "url": "ombCategory",
                "valueCoding": {
                  "system": "urn:oid:2.16.840.1.113883.6.238",
                  "code": "2186-5",
                  "display": "Not Hispanic or Latino"
                }
              } ]
            } ],
            "identifier": [ {
              "use": "usual",
              "type": {
                "coding": [ {
                  "system": "http://terminology.hl7.org/CodeSystem/v2-0203",
                  "code": "MR",
                  "display": "Medical Record Number"
                } ]
              },
              "system": "http://hospital.smarthealthit.org",
              "value": "9999999911"
            } ],
            "name": [ {
              "family": "Jones",
              "given": [ "Louise" ]
            } ],
            "gender": "female",
            "birthDate": "1971-11-21"
          }
        }, {
          "fullUrl": "MedicationRequest/numer-EXM105-FHIR3-5",
          "resource": {
            "resourceType": "MedicationRequest",
            "id": "numer-EXM105-FHIR3-5",
            "meta": { },
            "status": "completed",
            "intent": "order",
            "category": {
              "coding": [ {
                "system": "http://terminology.hl7.org/CodeSystem/medicationrequest-category",
                "code": "discharge",
                "display": "Discharge"
              } ]
            },
            "medicationCodeableConcept": {
              "coding": [ {
                "system": "http://www.nlm.nih.gov/research/umls/rxnorm",
                "code": "197903",
                "display": "Lovastatin 10 MG Oral Tablet"
              } ]
            },
            "subject": {
              "reference": "Patient/numer-EXM105-FHIR3"
            },
            "authoredOn": "2019-12-19T08:00:00-07:00"
          }
        } ]
      } ],
      "status": "complete",
      "type": "individual",
      "measure": {
        "reference": "Measure/measure-EXM105-FHIR3-8.0.000"
      },
      "patient": {
        "reference": "Patient/numer-EXM105-FHIR3"
      },
      "period": {
        "start": "2019-01-01T00:00:00-07:00",
        "end": "2019-12-31T00:00:00-07:00"
      },
      "group": [ {
        "identifier": {
          "value": "group-1"
        },
        "population": [ {
          "identifier": {
            "value": "initial-population"
          },
          "code": {
            "coding": [ {
              "code": "initial-population"
            } ]
          },
          "count": 1
        }, {
          "identifier": {
            "value": "numerator"
          },
          "code": {
            "coding": [ {
              "code": "numerator"
            } ]
          },
          "count": 1
        }, {
          "identifier": {
            "value": "denominator"
          },
          "code": {
            "coding": [ {
              "code": "denominator"
            } ]
          },
          "count": 1
        }, {
          "identifier": {
            "value": "denominator-exclusion"
          },
          "code": {
            "coding": [ {
              "code": "denominator-exclusion"
            } ]
          },
          "count": 0
        } ],
        "measureScore": 1.0
      } ],
      "evaluatedResources": {
        "reference": "#6be0c760-7a1f-48ad-9e88-7698f751ab24"
      }
    },
    "request": {
      "method": "PUT",
      "url": "MeasureReport/measurereport-numer-EXM105-FHIR3"
    }
  }, {
    "resource": {
      "resourceType": "Encounter",
      "id": "denom-EXM105-FHIR3-2",
      "meta": {
        "profile": [ "http://hl7.org/fhir/us/core/StructureDefinition/us-core-encounter" ]
      },
      "status": "finished",
      "class": {
        "system": "http://terminology.hl7.org/CodeSystem/v3-ActCode",
        "code": "IMP",
        "display": "inpatient encounter"
      },
      "type": [ {
        "coding": [ {
          "system": "http://snomed.info/sct",
          "code": "32485007",
          "display": "Hospital admission (procedure)"
        } ]
      } ],
      "subject": {
        "reference": "Patient/denom-EXM105-FHIR3"
      },
      "period": {
        "start": "2019-08-21T00:00:00-06:00",
        "end": "2019-12-19T08:15:00-07:00"
      },
      "diagnosis": [ {
        "condition": {
          "reference": "Condition/denom-EXM105-FHIR3-1"
        },
        "role": {
          "coding": [ {
            "system": "http://hl7.org/fhir/diagnosis-role",
            "code": "billing",
            "display": "Billing"
          } ]
        },
        "rank": 1
      } ]
    },
    "request": {
      "method": "PUT",
      "url": "Encounter/denom-EXM105-FHIR3-2"
    }
  }, {
    "resource": {
      "resourceType": "Condition",
      "id": "denom-EXM105-FHIR3-1",
      "meta": {
        "profile": [ "http://hl7.org/fhir/us/core/StructureDefinition/us-core-condition" ]
      },
      "verificationStatus": "confirmed",
      "category": [ {
        "coding": [ {
          "system": "http://terminology.hl7.org/CodeSystem/condition-category",
          "code": "encounter-diagnosis",
          "display": "Encounter Diagnosis"
        } ]
      } ],
      "code": {
        "coding": [ {
          "system": "http://snomed.info/sct",
          "code": "116288000",
          "display": "Paralytic stroke (disorder)"
        } ]
      },
      "subject": {
        "reference": "Patient/denom-EXM105-FHIR3"
      }
    },
    "request": {
      "method": "PUT",
      "url": "Condition/denom-EXM105-FHIR3-1"
    }
  }, {
    "resource": {
      "resourceType": "ValueSet",
      "id": "2.16.840.1.114222.4.11.836",
      "url": "http://cts.nlm.nih.gov/fhir/ValueSet/2.16.840.1.114222.4.11.836",
      "identifier": [ {
        "system": "urn:ietf:rfc:3986",
        "value": "2.16.840.1.114222.4.11.836"
      } ],
      "version": "20121025",
      "name": "Race",
      "title": "Race",
      "status": "active",
      "publisher": "NLM",
      "compose": {
        "include": [ {
          "system": "http://www.cdc.gov/phin/resources/vocabulary/index.html",
          "version": "1.2",
          "concept": [ {
            "code": "1002-5",
            "display": "American Indian or Alaska Native"
          }, {
            "code": "2028-9",
            "display": "Asian"
          }, {
            "code": "2054-5",
            "display": "Black or African American"
          }, {
            "code": "2076-8",
            "display": "Native Hawaiian or Other Pacific Islander"
          }, {
            "code": "2106-3",
            "display": "White"
          }, {
            "code": "2131-1",
            "display": "Other Race"
          } ]
        } ]
      }
    },
    "request": {
      "method": "PUT",
      "url": "ValueSet/2.16.840.1.114222.4.11.836"
    }
  }, {
    "resource": {
      "resourceType": "ValueSet",
      "id": "2.16.840.1.113762.1.4.1110.19",
      "url": "http://cts.nlm.nih.gov/fhir/ValueSet/2.16.840.1.113762.1.4.1110.19",
      "identifier": [ {
        "system": "urn:ietf:rfc:3986",
        "value": "2.16.840.1.113762.1.4.1110.19"
      } ],
      "version": "20170504",
      "name": "StatinGrouper",
      "title": "Statin Grouper",
      "status": "active",
      "publisher": "NLM",
      "compose": {
        "include": [ {
          "system": "http://www.nlm.nih.gov/research/umls/rxnorm",
          "version": "2018-07",
          "concept": [ {
            "code": "197903",
            "display": "Lovastatin 10 MG Oral Tablet"
          }, {
            "code": "197904",
            "display": "Lovastatin 20 MG Oral Tablet"
          }, {
            "code": "197905",
            "display": "Lovastatin 40 MG Oral Tablet"
          }, {
            "code": "198211",
            "display": "Simvastatin 40 MG Oral Tablet"
          }, {
            "code": "2001254",
            "display": "pitavastatin magnesium 1 MG Oral Tablet"
          }, {
            "code": "2001262",
            "display": "pitavastatin magnesium 2 MG Oral Tablet"
          }, {
            "code": "2001266",
            "display": "pitavastatin magnesium 4 MG Oral Tablet"
          }, {
            "code": "200345",
            "display": "Simvastatin 80 MG Oral Tablet"
          }, {
            "code": "259255",
            "display": "atorvastatin 80 MG Oral Tablet"
          }, {
            "code": "310404",
            "display": "fluvastatin 20 MG Oral Capsule"
          }, {
            "code": "310405",
            "display": "fluvastatin 40 MG Oral Capsule"
          }, {
            "code": "312961",
            "display": "Simvastatin 20 MG Oral Tablet"
          }, {
            "code": "312962",
            "display": "Simvastatin 5 MG Oral Tablet"
          }, {
            "code": "314231",
            "display": "Simvastatin 10 MG Oral Tablet"
          }, {
            "code": "359731",
            "display": "24 HR Lovastatin 40 MG Extended Release Oral Tablet"
          }, {
            "code": "359732",
            "display": "24 HR Lovastatin 60 MG Extended Release Oral Tablet"
          }, {
            "code": "360507",
            "display": "24 HR fluvastatin 80 MG Extended Release Oral Tablet"
          }, {
            "code": "404011",
            "display": "Amlodipine 5 MG / atorvastatin 80 MG Oral Tablet"
          }, {
            "code": "404013",
            "display": "Amlodipine 10 MG / atorvastatin 80 MG Oral Tablet"
          }, {
            "code": "433849",
            "display": "24 HR Lovastatin 20 MG Extended Release Oral Tablet"
          }, {
            "code": "476345",
            "display": "ezetimibe 10 MG / Simvastatin 10 MG Oral Tablet"
          }, {
            "code": "476349",
            "display": "ezetimibe 10 MG / Simvastatin 20 MG Oral Tablet"
          }, {
            "code": "476350",
            "display": "ezetimibe 10 MG / Simvastatin 40 MG Oral Tablet"
          }, {
            "code": "476351",
            "display": "ezetimibe 10 MG / Simvastatin 80 MG Oral Tablet"
          }, {
            "code": "597967",
            "display": "Amlodipine 10 MG / atorvastatin 20 MG Oral Tablet"
          }, {
            "code": "597971",
            "display": "Amlodipine 2.5 MG / atorvastatin 10 MG Oral Tablet"
          }, {
            "code": "597974",
            "display": "Amlodipine 2.5 MG / atorvastatin 20 MG Oral Tablet"
          }, {
            "code": "597977",
            "display": "Amlodipine 5 MG / atorvastatin 10 MG Oral Tablet"
          }, {
            "code": "597980",
            "display": "Amlodipine 5 MG / atorvastatin 20 MG Oral Tablet"
          }, {
            "code": "597984",
            "display": "Amlodipine 5 MG / atorvastatin 40 MG Oral Tablet"
          }, {
            "code": "597987",
            "display": "Amlodipine 10 MG / atorvastatin 10 MG Oral Tablet"
          }, {
            "code": "597990",
            "display": "Amlodipine 10 MG / atorvastatin 40 MG Oral Tablet"
          }, {
            "code": "597993",
            "display": "Amlodipine 2.5 MG / atorvastatin 40 MG Oral Tablet"
          }, {
            "code": "617310",
            "display": "atorvastatin 20 MG Oral Tablet"
          }, {
            "code": "617311",
            "display": "atorvastatin 40 MG Oral Tablet"
          }, {
            "code": "617312",
            "display": "atorvastatin 10 MG Oral Tablet"
          }, {
            "code": "757702",
            "display": "Simvastatin 10 MG Disintegrating Oral Tablet"
          }, {
            "code": "757703",
            "display": "Simvastatin 20 MG Disintegrating Oral Tablet"
          }, {
            "code": "757704",
            "display": "Simvastatin 40 MG Disintegrating Oral Tablet"
          }, {
            "code": "757705",
            "display": "Simvastatin 80 MG Disintegrating Oral Tablet"
          }, {
            "code": "859419",
            "display": "Rosuvastatin calcium 40 MG Oral Tablet"
          }, {
            "code": "859424",
            "display": "Rosuvastatin calcium 5 MG Oral Tablet"
          }, {
            "code": "859747",
            "display": "Rosuvastatin calcium 10 MG Oral Tablet"
          }, {
            "code": "859751",
            "display": "Rosuvastatin calcium 20 MG Oral Tablet"
          }, {
            "code": "861643",
            "display": "pitavastatin calcium 1 MG Oral Tablet"
          }, {
            "code": "861648",
            "display": "pitavastatin calcium 2 MG Oral Tablet"
          }, {
            "code": "861652",
            "display": "pitavastatin calcium 4 MG Oral Tablet"
          }, {
            "code": "904458",
            "display": "Pravastatin Sodium 10 MG Oral Tablet"
          }, {
            "code": "904467",
            "display": "Pravastatin Sodium 20 MG Oral Tablet"
          }, {
            "code": "904475",
            "display": "Pravastatin Sodium 40 MG Oral Tablet"
          }, {
            "code": "904481",
            "display": "Pravastatin Sodium 80 MG Oral Tablet"
          } ]
        } ]
      }
    },
    "request": {
      "method": "PUT",
      "url": "ValueSet/2.16.840.1.113762.1.4.1110.19"
    }
  }, {
    "resource": {
      "resourceType": "ValueSet",
      "id": "2.16.840.1.113883.3.666.5.307",
      "url": "http://cts.nlm.nih.gov/fhir/ValueSet/2.16.840.1.113883.3.666.5.307",
      "identifier": [ {
        "system": "urn:ietf:rfc:3986",
        "value": "2.16.840.1.113883.3.666.5.307"
      } ],
      "version": "20170504",
      "name": "EncounterInpatient",
      "title": "Encounter Inpatient",
      "status": "active",
      "publisher": "NLM",
      "compose": {
        "include": [ {
          "system": "http://snomed.info/sct",
          "version": "2018-03",
          "concept": [ {
            "code": "183452005",
            "display": "Emergency hospital admission (procedure)"
          }, {
            "code": "32485007",
            "display": "Hospital admission (procedure)"
          }, {
            "code": "8715000",
            "display": "Hospital admission, elective (procedure)"
          } ]
        } ]
      }
    },
    "request": {
      "method": "PUT",
      "url": "ValueSet/2.16.840.1.113883.3.666.5.307"
    }
  }, {
    "resource": {
      "resourceType": "ValueSet",
      "id": "2.16.840.1.113762.1.4.1110.39",
      "url": "http://cts.nlm.nih.gov/fhir/ValueSet/2.16.840.1.113762.1.4.1110.39",
      "title": "Ticagrelor Therapy",
      "status": "active",
      "publisher": "The Joint Commission",
      "compose": {
        "include": [ {
          "system": "http://www.nlm.nih.gov/research/umls/rxnorm",
          "version": "2019-08",
          "concept": [ {
            "code": "1116635",
            "display": "Ticagrelor 90 MG Oral Tablet"
          }, {
            "code": "1666332",
            "display": "Ticagrelor 60 MG Oral Tablet"
          } ]
        } ]
      }
    },
    "request": {
      "method": "PUT",
      "url": "ValueSet/2.16.840.1.113762.1.4.1110.39"
    }
  }, {
    "resource": {
      "resourceType": "ValueSet",
      "id": "1.3.6.1.4.1.33895.1.3.0.45",
      "url": "http://cts.nlm.nih.gov/fhir/ValueSet/1.3.6.1.4.1.33895.1.3.0.45",
      "identifier": [ {
        "system": "urn:ietf:rfc:3986",
        "value": "1.3.6.1.4.1.33895.1.3.0.45"
      } ],
      "version": "20160331",
      "name": "ComfortMeasures",
      "title": "Comfort Measures",
      "status": "active",
      "publisher": "TJC EH Steward",
      "compose": {
        "include": [ {
          "system": "http://snomed.info/sct",
          "version": "2018-03",
          "concept": [ {
            "code": "133918004",
            "display": "Comfort measures (regime/therapy)"
          }, {
            "code": "182964004",
            "display": "Terminal care (regime/therapy)"
          }, {
            "code": "385736008",
            "display": "Dying care (regime/therapy)"
          }, {
            "code": "385763009",
            "display": "Hospice care (regime/therapy)"
          } ]
        } ]
      }
    },
    "request": {
      "method": "PUT",
      "url": "ValueSet/1.3.6.1.4.1.33895.1.3.0.45"
    }
  }, {
    "resource": {
      "resourceType": "Patient",
      "id": "denomex-EXM105-FHIR3",
      "meta": {
        "profile": [ "http://hl7.org/fhir/us/core/StructureDefinition/us-core-patient" ]
      },
      "extension": [ {
        "url": "http://hl7.org/fhir/us/core/StructureDefinition/us-core-race",
        "extension": [ {
          "url": "ombCategory",
          "valueCoding": {
            "system": "urn:oid:2.16.840.1.113883.6.238",
            "code": "2106-3",
            "display": "White"
          }
        } ]
      }, {
        "url": "http://hl7.org/fhir/us/core/StructureDefinition/us-core-ethnicity",
        "extension": [ {
          "url": "ombCategory",
          "valueCoding": {
            "system": "urn:oid:2.16.840.1.113883.6.238",
            "code": "2186-5",
            "display": "Not Hispanic or Latino"
          }
        } ]
      } ],
      "identifier": [ {
        "use": "usual",
        "type": {
          "coding": [ {
            "system": "http://terminology.hl7.org/CodeSystem/v2-0203",
            "code": "MR",
            "display": "Medical Record Number"
          } ]
        },
        "system": "http://hospital.smarthealthit.org",
        "value": "9999999911"
      } ],
      "name": [ {
        "family": "Jones",
        "given": [ "Louise" ]
      } ],
      "gender": "female",
      "birthDate": "1971-11-21"
    },
    "request": {
      "method": "PUT",
      "url": "Patient/denomex-EXM105-FHIR3"
    }
  }, {
    "resource": {
      "resourceType": "Measure",
      "id": "measure-EXM105-FHIR3-8.0.000",
      "meta": {
        "versionId": "5",
        "lastUpdated": "2019-12-04T17:52:12.092-07:00",
        "profile": [ "http://hl7.org/fhir/us/cqfmeasures/StructureDefinition/proportion-measure-cqfm" ]
      },
      "text": {
        "status": "generated",
        "div": "<div xmlns=\"http://www.w3.org/1999/xhtml\"><table class=\"header_table\">\r\n                    <tbody>\r\n                    <tr>\r\n                    <td style=\"background-color:#656565; width:20%\"><span class=\"td_label\">eCQM Title</span></td>\r\n                    <td colspan=\"3\" style=\"width:80%\"><h1 style=\"font-size:10px\">Discharged on Statin Medication</h1></td>\r\n                    </tr>\r\n                    <tr>\r\n                    <td style=\"background-color:#656565; width:20%\"><span class=\"td_label\">eCQM Identifier (Measure Authoring Tool)</span></td>\r\n                    <td style=\"width:30%\">105</td>\r\n                    <td style=\"background-color:#656565; width:20%\"><span class=\"td_label\">eCQM Version number</span></td>\r\n                    <td style=\"width:30%\">8.1.000</td>\r\n                    </tr>\r\n                    <tr>\r\n                    <td style=\"background-color:#656565; width:20%\"><span class=\"td_label\">NQF Number</span></td>\r\n                    <td style=\"width:30%\">Not Applicable</td>\r\n                    <td style=\"background-color:#656565; width:20%\"><span class=\"td_label\">GUID</span></td>\r\n                    <td>1f503318-bb8d-4b91-af63-223ae0a2328e</td>\r\n                    </tr>\r\n                    <tr>\r\n                    <td style=\"background-color:#656565; width:20%\"><span class=\"td_label\">Measurement Period</span></td>\r\n                    <td colspan=\"3\" style=\"width:80%\">January 1, 20XX through December 31, 20XX</td>\r\n                    </tr>\r\n                    <tr>\r\n                    <td style=\"background-color:#656565; width:20%\"><span class=\"td_label\">Measure Steward</span></td>\r\n                    <td colspan=\"3\" style=\"width:80%\">The Joint Commission</td>\r\n                    </tr>\r\n                    <tr>\r\n                    <td style=\"background-color:#656565; width:20%\"><span class=\"td_label\">Measure Developer</span></td>\r\n                    <td colspan=\"3\" style=\"width:80%\">The Joint Commission</td>\r\n                    </tr>\r\n                    <tr>\r\n                    <td style=\"background-color:#656565; width:20%\"><span class=\"td_label\">Endorsed By</span></td>\r\n                    <td colspan=\"3\" style=\"width:80%\">None</td>\r\n                    </tr>\r\n                    <tr>\r\n                    <td style=\"background-color:#656565; width:20%\"><span class=\"td_label\">Description</span></td>\r\n                    <td colspan=\"3\" style=\"width:80%\">\r\n                    <div style=\"width:660px;overflow-x:hidden;overflow-y:auto\">\r\n                        <pre>Ischemic stroke patients who are prescribed or continuing to take statin medication at hospital discharge</pre>\r\n                    </div></td>\r\n                    </tr>\r\n                    <tr>\r\n                    <td style=\"background-color:#656565; width:20%\"><span class=\"td_label\">Copyright</span></td>\r\n                    <td colspan=\"3\" style=\"width:80%\">\r\n                    <div style=\"width:660px;overflow-x:hidden;overflow-y:auto\">\r\n                        <pre>LOINC(R) copyright 2004-2018 Regenstrief Institute, Inc. \r\n                This material contains SNOMED Clinical Terms(R) (SNOMED CT[R]) copyright 2004-2018 International Health Terminology Standards Development Organisation. All Rights Reserved.\r\n                \r\n                Measure specifications are in the Public Domain.</pre>\r\n                    </div></td>\r\n                    </tr>\r\n                    <tr>\r\n                    <td style=\"background-color:#656565; width:20%\"><span class=\"td_label\">Disclaimer</span></td>\r\n                    <td colspan=\"3\" style=\"width:80%\">\r\n                    <div style=\"width:660px;overflow-x:hidden;overflow-y:auto\">\r\n                        <pre>These performance measures are not clinical guidelines and do not establish a standard of medical care, and have not been tested for all potential applications. The measures and specifications are provided without warranty.</pre>\r\n                    </div></td>\r\n                    </tr>\r\n                    <tr>\r\n                    <td style=\"background-color:#656565; width:20%\"><span class=\"td_label\">Measure Scoring</span></td>\r\n                    <td colspan=\"3\" style=\"width:80%\">Proportion</td>\r\n                    </tr>\r\n                    <tr>\r\n                    <td style=\"background-color:#656565; width:20%\"><span class=\"td_label\">Measure Type</span></td>\r\n                    <td colspan=\"3\" style=\"width:80%\">Process</td>\r\n                    </tr>\r\n                    <tr>\r\n                    <td style=\"background-color:#656565; width:20%\"><span class=\"td_label\">Stratification</span></td>\r\n                    <td colspan=\"3\" style=\"width:80%\">\r\n                    <div style=\"width:660px;overflow-x:hidden;overflow-y:auto\">\r\n                        <pre>None</pre>\r\n                    </div></td>\r\n                    </tr>\r\n                    <tr>\r\n                    <td style=\"background-color:#656565; width:20%\"><span class=\"td_label\">Risk Adjustment</span></td>\r\n                    <td colspan=\"3\" style=\"width:80%\">\r\n                    <div style=\"width:660px;overflow-x:hidden;overflow-y:auto\">\r\n                        <pre>None</pre>\r\n                    </div></td>\r\n                    </tr>\r\n                    <tr>\r\n                    <td style=\"background-color:#656565; width:20%\"><span class=\"td_label\">Rate Aggregation</span></td>\r\n                    <td colspan=\"3\" style=\"width:80%\">\r\n                    <div style=\"width:660px;overflow-x:hidden;overflow-y:auto\">\r\n                        <pre>None</pre>\r\n                    </div></td>\r\n                    </tr>\r\n                    <tr>\r\n                    <td style=\"background-color:#656565; width:20%\"><span class=\"td_label\">Rationale</span></td>\r\n                    <td colspan=\"3\" style=\"width:80%\">\r\n                    <div style=\"width:660px;overflow-x:hidden;overflow-y:auto\">\r\n                        <pre>There is an extensive and consistent body of evidence supporting the use of statins for secondary prevention in patients with clinically evident atherosclerotic cardiovascular disease (ASCVD), which includes individuals with ischemic stroke due to large artery atherosclerosis, individuals with ischemic stroke due to intrinsic small vessel disease, and individuals with ischemic stroke not directly due to atherosclerosis but with clinically evident atherosclerotic disease in an uninvolved cerebral or noncerebral bed.  Both women and men with clinical ASCVD are at increased risk for recurrent ASCVD and ASCVD death.  High-intensity statin therapy should be initiated or continued as first-line therapy in women and men less than or equal to 75 years of age who have clinical ASCVD, unless contraindicated. In patients with clinical ASCVD and a contraindication to high-intensity statin therapy, moderate-intensity therapy should be considered as an alternative if it can be tolerated.  In individuals greater than 75 years of age, the potential for ASCVD risk reduction benefits, adverse effects, drug-drug interactions, and patient preferences should be considered, and statin therapy individualized based on these considerations (Stone, 2013).</pre>\r\n                    </div></td>\r\n                    </tr>\r\n                    <tr>\r\n                    <td style=\"background-color:#656565; width:20%\"><span class=\"td_label\">Clinical Recommendation Statement</span></td>\r\n                    <td colspan=\"3\" style=\"width:80%\">\r\n                    <div style=\"width:660px;overflow-x:hidden;overflow-y:auto\">\r\n                        <pre>For patients with stroke of atherosclerotic origin, intensive lipid lowering therapy with statins should be initiated</pre>\r\n                    </div></td>\r\n                    </tr>\r\n                    <tr>\r\n                    <td style=\"background-color:#656565; width:20%\"><span class=\"td_label\">Improvement Notation</span></td>\r\n                    <td colspan=\"3\" style=\"width:80%\">\r\n                    <div style=\"width:660px;overflow-x:hidden;overflow-y:auto\">\r\n                        <pre>Improvement noted as an increase in rate</pre>\r\n                    </div></td>\r\n                    </tr>\r\n                    <tr>\r\n                    <td style=\"background-color:#656565; width:20%\"><span class=\"td_label\">Reference</span></td>\r\n                    <td colspan=\"3\" style=\"width:80%\">\r\n                    <div style=\"width:660px;overflow-x:hidden;overflow-y:auto\">\r\n                        <pre>Amarenco, P., Bogousslavsky, J., Callahan, A., III, et al. (2006, August 10). High-dose atorvastatin after stroke or transient ischemic attack. New England Journal of Medicine, 355(6), 549-559. </pre>\r\n                    </div></td>\r\n                    </tr>\r\n                    <tr>\r\n                    <td style=\"background-color:#656565; width:20%\"><span class=\"td_label\">Reference</span></td>\r\n                    <td colspan=\"3\" style=\"width:80%\">\r\n                    <div style=\"width:660px;overflow-x:hidden;overflow-y:auto\">\r\n                        <pre>Biffi, A., Devan, W. J., Anderson, C. D., et al. (2011, May). Statin treatment and functional outcome after ischemic stroke: Case-control and meta-analysis. Stroke, 42(5), 1314-1319. </pre>\r\n                    </div></td>\r\n                    </tr>\r\n                    <tr>\r\n                    <td style=\"background-color:#656565; width:20%\"><span class=\"td_label\">Reference</span></td>\r\n                    <td colspan=\"3\" style=\"width:80%\">\r\n                    <div style=\"width:660px;overflow-x:hidden;overflow-y:auto\">\r\n                        <pre>Centers for Disease Control and Prevention. (2009, May 1). Prevalence and most common causes of disability among adultsUnited States, 2005. Morbidity and Mortality Weekly Report, 58(16), 421-426. </pre>\r\n                    </div></td>\r\n                    </tr>\r\n                    <tr>\r\n                    <td style=\"background-color:#656565; width:20%\"><span class=\"td_label\">Reference</span></td>\r\n                    <td colspan=\"3\" style=\"width:80%\">\r\n                    <div style=\"width:660px;overflow-x:hidden;overflow-y:auto\">\r\n                        <pre>Chan, P. S., Nallamothu, B. K., Gurm, H. S., et al. (2007, May 8). Incremental benefit and cost-effectiveness of high-dose statin therapy in high-risk patients with coronary artery disease. Circulation, 115(18), 2398-2409. </pre>\r\n                    </div></td>\r\n                    </tr>\r\n                    <tr>\r\n                    <td style=\"background-color:#656565; width:20%\"><span class=\"td_label\">Reference</span></td>\r\n                    <td colspan=\"3\" style=\"width:80%\">\r\n                    <div style=\"width:660px;overflow-x:hidden;overflow-y:auto\">\r\n                        <pre>Culver, A. L., Ockene, I. S., Balasubramanian, R., et al. (2012, January 23). Statin use and risk of diabetes mellitus in postmenopausal women in the Women's Health Initiative. Archives of Internal Medicine, 172(2),  144-152. </pre>\r\n                    </div></td>\r\n                    </tr>\r\n                    <tr>\r\n                    <td style=\"background-color:#656565; width:20%\"><span class=\"td_label\">Reference</span></td>\r\n                    <td colspan=\"3\" style=\"width:80%\">\r\n                    <div style=\"width:660px;overflow-x:hidden;overflow-y:auto\">\r\n                        <pre>Feher, A., Pusch, G., Koltai, K., et al. (2011, April 14). Statin therapy in the primary and the secondary prevention of ischaemic cerebrovascular diseases. International Journal of Cardiology, 148(2), 131-138. </pre>\r\n                    </div></td>\r\n                    </tr>\r\n                    <tr>\r\n                    <td style=\"background-color:#656565; width:20%\"><span class=\"td_label\">Reference</span></td>\r\n                    <td colspan=\"3\" style=\"width:80%\">\r\n                    <div style=\"width:660px;overflow-x:hidden;overflow-y:auto\">\r\n                        <pre>Grundy, S. M., Cleeman, J. I., Merz, C. N., et al. (2004, July 13). Implications of recent clinical trials for the National Cholesterol Education Program Adult Treatment Panel III Guidelines. Circulation, 110(2), 227-239. </pre>\r\n                    </div></td>\r\n                    </tr>\r\n                    <tr>\r\n                    <td style=\"background-color:#656565; width:20%\"><span class=\"td_label\">Reference</span></td>\r\n                    <td colspan=\"3\" style=\"width:80%\">\r\n                    <div style=\"width:660px;overflow-x:hidden;overflow-y:auto\">\r\n                        <pre>Kernan, W. N., Ovbiagele, B., Black, H. R., et al. (2014, May). Guidelines for the prevention of stroke in patients with stroke and transient ischemic attack: A guideline for health care professionals from the American Heart Association/American Stroke Association. Stroke, 45(7), 2160-2223. </pre>\r\n                    </div></td>\r\n                    </tr>\r\n                    <tr>\r\n                    <td style=\"background-color:#656565; width:20%\"><span class=\"td_label\">Reference</span></td>\r\n                    <td colspan=\"3\" style=\"width:80%\">\r\n                    <div style=\"width:660px;overflow-x:hidden;overflow-y:auto\">\r\n                        <pre>Kostis, W. J., Cheng, J. Q., Dobrzynski, J. M., et al. (2012, February 7). Meta-analysis of statin effects in women versus men. Journal of the American College of Cardiology, 59(6), 572-582.</pre>\r\n                    </div></td>\r\n                    </tr>\r\n                    <tr>\r\n                    <td style=\"background-color:#656565; width:20%\"><span class=\"td_label\">Reference</span></td>\r\n                    <td colspan=\"3\" style=\"width:80%\">\r\n                    <div style=\"width:660px;overflow-x:hidden;overflow-y:auto\">\r\n                        <pre>Lazar, L. D., Pletcher, M. J., Coxson, P. G., et al. (2011, July 12). Cost-effectiveness of statin therapy for primary prevention in a low-cost statin era. Circulation, 124(2), 146-153.</pre>\r\n                    </div></td>\r\n                    </tr>\r\n                    <tr>\r\n                    <td style=\"background-color:#656565; width:20%\"><span class=\"td_label\">Reference</span></td>\r\n                    <td colspan=\"3\" style=\"width:80%\">\r\n                    <div style=\"width:660px;overflow-x:hidden;overflow-y:auto\">\r\n                        <pre>Mitka, M. (2012, March 7). Some question use of statins to reduce cardiovascular risks in healthy women. JAMA, 307(9), 893-894. </pre>\r\n                    </div></td>\r\n                    </tr>\r\n                    <tr>\r\n                    <td style=\"background-color:#656565; width:20%\"><span class=\"td_label\">Reference</span></td>\r\n                    <td colspan=\"3\" style=\"width:80%\">\r\n                    <div style=\"width:660px;overflow-x:hidden;overflow-y:auto\">\r\n                        <pre>National Cholesterol Education Program Expert Panel on Detection, Evaluation, and Adults Treatment of High Blood Cholesterol in Adults. (2002, December 17). Third report of the National Cholesterol Education Program (NCEP) Expert Panel on Detection, Evaluation, and Treatment of High Blood Cholesterol in Adults (Adult Treatment Panel III)Final report. Circulation, 106(25), 3143-3421. </pre>\r\n                    </div></td>\r\n                    </tr>\r\n                    <tr>\r\n                    <td style=\"background-color:#656565; width:20%\"><span class=\"td_label\">Reference</span></td>\r\n                    <td colspan=\"3\" style=\"width:80%\">\r\n                    <div style=\"width:660px;overflow-x:hidden;overflow-y:auto\">\r\n                        <pre>Powers, W. J., Rabinstein, A. A., Ackerson, T., et al. (2018, January). 2018 guidelines for the early management of patients with acute ischemic stroke: A guideline for health care professionals from the American Heart Association/American Stroke Association. Stroke, 49, e44-e47. </pre>\r\n                    </div></td>\r\n                    </tr>\r\n                    <tr>\r\n                    <td style=\"background-color:#656565; width:20%\"><span class=\"td_label\">Reference</span></td>\r\n                    <td colspan=\"3\" style=\"width:80%\">\r\n                    <div style=\"width:660px;overflow-x:hidden;overflow-y:auto\">\r\n                        <pre>Rodriguez-Yanez, M., Agulla, J., Rodriguez-Gonzalez, R., et al. (2008, June). Statins and stroke. Therapeutic Advances in Cardiovascular Disease, 2(3), 157-166. </pre>\r\n                    </div></td>\r\n                    </tr>\r\n                    <tr>\r\n                    <td style=\"background-color:#656565; width:20%\"><span class=\"td_label\">Reference</span></td>\r\n                    <td colspan=\"3\" style=\"width:80%\">\r\n                    <div style=\"width:660px;overflow-x:hidden;overflow-y:auto\">\r\n                        <pre>Roger, V. L., Go, A. S., Lloyd-Jones, D. M., et al. (2012, January 3). Heart disease and stroke statistics2012 update: A report from the American Heart Association. Circulation, 125(1), e2-e220. </pre>\r\n                    </div></td>\r\n                    </tr>\r\n                    <tr>\r\n                    <td style=\"background-color:#656565; width:20%\"><span class=\"td_label\">Reference</span></td>\r\n                    <td colspan=\"3\" style=\"width:80%\">\r\n                    <div style=\"width:660px;overflow-x:hidden;overflow-y:auto\">\r\n                        <pre>Schellinger, P. D., Bryan, R. N., Caplan, L. R., et al. (2010, July 13). Evidence-based guideline: The role of diffusion and perfusion MRI for the diagnosis of acute ischemic stroke: Report of the Therapeutics and Technology Assessment Subcommittee of the American Academy of Neurology.  Neurology, 75(2), 177-185.</pre>\r\n                    </div></td>\r\n                    </tr>\r\n                    <tr>\r\n                    <td style=\"background-color:#656565; width:20%\"><span class=\"td_label\">Reference</span></td>\r\n                    <td colspan=\"3\" style=\"width:80%\">\r\n                    <div style=\"width:660px;overflow-x:hidden;overflow-y:auto\">\r\n                        <pre>Squizzato, A., Romualdi, E., Dentali, F., et al. (2011). Statins for acute ischemic stroke. Cochrane Database of Systematic Reviews, 8, CD007551. </pre>\r\n                    </div></td>\r\n                    </tr>\r\n                    <tr>\r\n                    <td style=\"background-color:#656565; width:20%\"><span class=\"td_label\">Reference</span></td>\r\n                    <td colspan=\"3\" style=\"width:80%\">\r\n                    <div style=\"width:660px;overflow-x:hidden;overflow-y:auto\">\r\n                        <pre>Stone, N. J., Robinson, J., Lichtenstein, A. H., et al. (2013, November). Guideline on the treatment of blood cholesterol to reduce atherosclerotic cardiovascular disease in adults: A report of the American College of Cardiology/American Heart Association Task Force on Practice Guidelines. Circulation, 11, 1-84. </pre>\r\n                    </div></td>\r\n                    </tr>\r\n                    <tr>\r\n                    <td style=\"background-color:#656565; width:20%\"><span class=\"td_label\">Reference</span></td>\r\n                    <td colspan=\"3\" style=\"width:80%\">\r\n                    <div style=\"width:660px;overflow-x:hidden;overflow-y:auto\">\r\n                        <pre>Van Dis, F. J., Keilson, L. M., Rundell, C. A., et al. (1996, June). Direct measurement of serum low-density lipoprotein cholesterol in patients with acute myocardial infarction on admission to the emergency room. American Journal of Cardiology, 77(14), 1232-1234. </pre>\r\n                    </div></td>\r\n                    </tr>\r\n                    <tr>\r\n                    <td style=\"background-color:#656565; width:20%\"><span class=\"td_label\">Reference</span></td>\r\n                    <td colspan=\"3\" style=\"width:80%\">\r\n                    <div style=\"width:660px;overflow-x:hidden;overflow-y:auto\">\r\n                        <pre>Weiss, R., Harder, M., %26amp; Rowe, J. (2003, May). The relationship between nonfasting and fasting lipid measurements in patients with or without type 2 diabetes mellitus receiving treatment with 3-hydroxy-3-methylglutaryl-coenzyme a reductase inhibitors. Clinical Therapeutics, 25(5), 1490-1497. </pre>\r\n                    </div></td>\r\n                    </tr>\r\n                    <tr>\r\n                    <td style=\"background-color:#656565; width:20%\"><span class=\"td_label\">Definition</span></td>\r\n                    <td colspan=\"3\" style=\"width:80%\">\r\n                    <div style=\"width:660px;overflow-x:hidden;overflow-y:auto\">\r\n                        <pre>None</pre>\r\n                    </div></td>\r\n                    </tr>\r\n                    <tr>\r\n                    <td style=\"background-color:#656565; width:20%\"><span class=\"td_label\">Guidance</span></td>\r\n                    <td colspan=\"3\" style=\"width:80%\">\r\n                    <div style=\"width:660px;overflow-x:hidden;overflow-y:auto\">\r\n                        <pre>The &quot;Non-elective Inpatient Encounter&quot; value set intends to capture all non-scheduled hospitalizations. This value set is a subset of the &quot;Inpatient Encounter&quot; value set, excluding concepts that specifically refer to elective hospital admissions. Non-elective Inpatient Encounters include emergency, urgent, and unplanned admissions.\r\n                \r\n                The &quot;Medication, Discharge&quot; datatype refers to the discharge medication list and is intended to express medications ordered for post-discharge use.</pre>\r\n                    </div></td>\r\n                    </tr>\r\n                    <tr>\r\n                    <td style=\"background-color:#656565; width:20%\"><span class=\"td_label\">Transmission Format</span></td>\r\n                    <td colspan=\"3\" style=\"width:80%\">\r\n                    <div style=\"width:660px;overflow-x:hidden;overflow-y:auto\">\r\n                        <pre>TBD</pre>\r\n                    </div></td>\r\n                    </tr>\r\n                    <tr>\r\n                    <td style=\"background-color:#656565; width:20%\"><span class=\"td_label\">Initial Population</span></td>\r\n                    <td colspan=\"3\" style=\"width:80%\">\r\n                    <div style=\"width:660px;overflow-x:hidden;overflow-y:auto\">\r\n                        <pre>Inpatient hospitalizations for patients age 18 and older, discharged from inpatient care (non-elective admissions) with a principal diagnosis of ischemic or hemorrhagic stroke and a length of stay less than or equal to 120 days that ends during measurement period</pre>\r\n                    </div></td>\r\n                    </tr>\r\n                    <tr>\r\n                    <td style=\"background-color:#656565; width:20%\"><span class=\"td_label\">Denominator</span></td>\r\n                    <td colspan=\"3\" style=\"width:80%\">\r\n                    <div style=\"width:660px;overflow-x:hidden;overflow-y:auto\">\r\n                        <pre>Inpatient hospitalizations for patients with a principal diagnosis of ischemic stroke</pre>\r\n                    </div></td>\r\n                    </tr>\r\n                    <tr>\r\n                    <td style=\"background-color:#656565; width:20%\"><span class=\"td_label\">Denominator Exclusions</span></td>\r\n                    <td colspan=\"3\" style=\"width:80%\">\r\n                    <div style=\"width:660px;overflow-x:hidden;overflow-y:auto\">\r\n                        <pre>Inpatient hospitalizations for patients admitted for elective carotid intervention. This exclusion is implicitly modeled by only including non-elective hospitalizations.\r\n                Inpatient hospitalizations for patients discharged to another hospital\r\n                Inpatient hospitalizations for patients who left against medical advice\r\n                Inpatient hospitalizations for patients who expired\r\n                Inpatient hospitalizations for patients discharged to home for hospice care\r\n                Inpatient hospitalizations for patients discharged to a health care facility for hospice care\r\n                Inpatient hospitalizations for patients with comfort measures documented</pre>\r\n                    </div></td>\r\n                    </tr>\r\n                    <tr>\r\n                    <td style=\"background-color:#656565; width:20%\"><span class=\"td_label\">Numerator</span></td>\r\n                    <td colspan=\"3\" style=\"width:80%\">\r\n                    <div style=\"width:660px;overflow-x:hidden;overflow-y:auto\">\r\n                        <pre>Inpatient hospitalizations for patients prescribed or continuing to take statin medication at hospital discharge</pre>\r\n                    </div></td>\r\n                    </tr>\r\n                    <tr>\r\n                    <td style=\"background-color:#656565; width:20%\"><span class=\"td_label\">Numerator Exclusions</span></td>\r\n                    <td colspan=\"3\" style=\"width:80%\">\r\n                    <div style=\"width:660px;overflow-x:hidden;overflow-y:auto\">\r\n                        <pre>Not Applicable</pre>\r\n                    </div></td>\r\n                    </tr>\r\n                    <tr>\r\n                    <td style=\"background-color:#656565; width:20%\"><span class=\"td_label\">Denominator Exceptions</span></td>\r\n                    <td colspan=\"3\" style=\"width:80%\">\r\n                    <div style=\"width:660px;overflow-x:hidden;overflow-y:auto\">\r\n                        <pre>Inpatient hospitalizations for patients with a reason for not prescribing statin medication at discharge\r\n                Inpatient hospitalizations for patients with a maximum LDL-c result of  less than 70 mg/dL %26lt;= 30 days prior to arrival or any time during the hospital stay\r\n                Inpatient hospitalizations for patients with a statin allergy.</pre>\r\n                    </div></td>\r\n                    </tr>\r\n                    <tr>\r\n                    <td style=\"background-color:#656565; width:20%\"><span class=\"td_label\">Supplemental Data Elements</span></td>\r\n                    <td colspan=\"3\" style=\"width:80%\">\r\n                    <div style=\"width:660px;overflow-x:hidden;overflow-y:auto\">\r\n                        <pre>For every patient evaluated by this measure also identify payer, race, ethnicity and sex</pre>\r\n                    </div></td>\r\n                    </tr>\r\n                    </tbody>\r\n                </table>\r\n                <h2><a name=\"toc\">Table of Contents</a></h2>\r\n                <ul style=\"padding-left: 50px;\">\r\n                    <li><a href=\"#d1e405\">Population Criteria</a></li>\r\n                    <li><a href=\"#d1e649\">Definitions</a></li>\r\n                    <li><a href=\"#d1e650\">Functions</a></li>\r\n                    <li><a href=\"#d1e555\">Terminology</a></li>\r\n                    <li><a href=\"#d1e647\">Data Criteria (QDM Data Elements)</a></li>\r\n                    <li><a href=\"#d1e767\">Supplemental Data Elements</a></li>\r\n                    <li><a href=\"#d1e879\">Risk Adjustment Variables</a></li>\r\n                </ul>\r\n                <div style=\"float:left; background:teal; height:3px; width:80%\"/>\r\n                <h3><a name=\"d1e405\" href=\"#toc\">Population Criteria</a></h3>\r\n                <div>\r\n                    <ul style=\"list-style:none;padding-left:10px;\">\r\n                    <li style=\"list-style:none;padding-left:0px;\" class=\"list-unstyled\">\r\n                    <div class=\"treeview hover p-l-10\">\r\n                    <ul class=\"list-unstyled\">\r\n                        <li class=\"list-unstyled\"><input id=\"test-initialPopulation_235\" type=\"checkbox\"/><label for=\"test-initialPopulation_235\" class=\"list-header\"><strong>Initial Population</strong></label>\r\n                        <ul class=\"code\">\r\n                        <li class=\"list-unstyled\">\r\n                        <div class=\"treeview hover p-l-10\">\r\n                            <ul>\r\n                            <li style=\"padding-left: 0px;\">\r\n                            <div>\r\n                            <pre class=\"cql-definition-body\">TJC.&quot;Encounter with Principal Diagnosis and Age&quot;</pre>\r\n                            </div></li>\r\n                            </ul>%26nbsp;\r\n                        </div></li>\r\n                        </ul></li>\r\n                    </ul>\r\n                    </div></li>\r\n                    <li style=\"list-style:none;padding-left:0px;\" class=\"list-unstyled\">\r\n                    <div class=\"treeview hover p-l-10\">\r\n                    <ul class=\"list-unstyled\">\r\n                        <li class=\"list-unstyled\"><input id=\"test-denominator_118\" type=\"checkbox\"/><label for=\"test-denominator_118\" class=\"list-header\"><strong>Denominator</strong></label>\r\n                        <ul class=\"code\">\r\n                        <li class=\"list-unstyled\">\r\n                        <div class=\"treeview hover p-l-10\">\r\n                            <ul>\r\n                            <li style=\"padding-left: 0px;\">\r\n                            <div>\r\n                            <pre class=\"cql-definition-body\">TJC.&quot;Ischemic Stroke Encounter&quot;</pre>\r\n                            </div></li>\r\n                            </ul>%26nbsp;\r\n                        </div></li>\r\n                        </ul></li>\r\n                    </ul>\r\n                    </div></li>\r\n                    <li style=\"list-style:none;padding-left:0px;\" class=\"list-unstyled\">\r\n                    <div class=\"treeview hover p-l-10\">\r\n                    <ul class=\"list-unstyled\">\r\n                        <li class=\"list-unstyled\"><input id=\"test-denominatorExclusions_715\" type=\"checkbox\"/><label for=\"test-denominatorExclusions_715\" class=\"list-header\"><strong>Denominator Exclusions</strong></label>\r\n                        <ul class=\"code\">\r\n                        <li class=\"list-unstyled\">\r\n                        <div class=\"treeview hover p-l-10\">\r\n                            <ul>\r\n                            <li style=\"padding-left: 0px;\">\r\n                            <div>\r\n                            <pre class=\"cql-definition-body\">TJC.&quot;Ischemic Stroke Encounters with Discharge Disposition&quot;\r\n                union TJC.&quot;Comfort Measures during Hospitalization&quot;</pre>\r\n                            </div></li>\r\n                            </ul>%26nbsp;\r\n                        </div></li>\r\n                        </ul></li>\r\n                    </ul>\r\n                    </div></li>\r\n                    <li style=\"list-style:none;padding-left:0px;\" class=\"list-unstyled\">\r\n                    <div class=\"treeview hover p-l-10\">\r\n                    <ul class=\"list-unstyled\">\r\n                        <li class=\"list-unstyled\"><input id=\"test-numerator_500\" type=\"checkbox\"/><label for=\"test-numerator_500\" class=\"list-header\"><strong>Numerator</strong></label>\r\n                        <ul class=\"code\">\r\n                        <li class=\"list-unstyled\">\r\n                        <div class=\"treeview hover p-l-10\">\r\n                            <ul>\r\n                            <li style=\"padding-left: 0px;\">\r\n                            <div>\r\n                            <pre class=\"cql-definition-body\">TJC.&quot;Ischemic Stroke Encounter&quot; IschemicStrokeEncounter\r\n                with &quot;Statin at Discharge&quot; DischargeStatin\r\n                    such that DischargeStatin.authorDatetime during IschemicStrokeEncounter.relevantPeriod</pre>\r\n                            </div></li>\r\n                            </ul>%26nbsp;\r\n                        </div></li>\r\n                        </ul></li>\r\n                    </ul>\r\n                    </div></li>\r\n                    <li style=\"list-style:none;padding-left:0px;\" class=\"list-unstyled\">\r\n                    <div class=\"treeview hover p-l-10\">\r\n                    <ul class=\"list-unstyled\">\r\n                        <li class=\"list-unstyled\"><input id=\"test-numeratorExclusions_564\" type=\"checkbox\"/><label for=\"test-numeratorExclusions_564\" class=\"list-header\"><strong>Numerator Exclusions</strong></label>\r\n                        <ul class=\"code\">\r\n                        <li>\r\n                        <div id=\"test-None_340\">\r\n                            <strong class=\"cql-class\">None</strong>\r\n                        </div></li>\r\n                        </ul></li>\r\n                    </ul>\r\n                    </div></li>\r\n                    <li style=\"list-style:none;padding-left:0px;\" class=\"list-unstyled\">\r\n                    <div class=\"treeview hover p-l-10\">\r\n                    <ul class=\"list-unstyled\">\r\n                        <li class=\"list-unstyled\"><input id=\"test-denominatorExceptions_547\" type=\"checkbox\"/><label for=\"test-denominatorExceptions_547\" class=\"list-header\"><strong>Denominator Exceptions</strong></label>\r\n                        <ul class=\"code\">\r\n                        <li class=\"list-unstyled\">\r\n                        <div class=\"treeview hover p-l-10\">\r\n                            <ul>\r\n                            <li style=\"padding-left: 0px;\">\r\n                            <div>\r\n                            <pre class=\"cql-definition-body\">( TJC.&quot;Ischemic Stroke Encounter&quot; IschemicStrokeEncounter\r\n                    with &quot;Statin Not Given at Discharge&quot; NoDischargeStatin\r\n                    such that NoDischargeStatin.authorDatetime during IschemicStrokeEncounter.relevantPeriod\r\n                )\r\n                union ( TJC.&quot;Ischemic Stroke Encounter&quot; IschemicStrokeEncounter\r\n                    with &quot;Statin Allergy&quot; StatinAllergy\r\n                        such that StatinAllergy.prevalencePeriod starts on or before end of IschemicStrokeEncounter.relevantPeriod\r\n                )\r\n                union &quot;Encounter with Max LDL less than 70 mg per dL&quot;</pre>\r\n                            </div></li>\r\n                            </ul>%26nbsp;\r\n                        </div></li>\r\n                        </ul></li>\r\n                    </ul>\r\n                    </div></li>\r\n                    <li style=\"list-style:none;padding-left:0px;\" class=\"list-unstyled\">\r\n                    <div class=\"treeview hover p-l-10\">\r\n                    <ul class=\"list-unstyled\">\r\n                        <li class=\"list-unstyled\"><input id=\"test-stratum_849\" type=\"checkbox\"/><label for=\"test-stratum_849\" class=\"list-header\"><strong>Stratification</strong></label>\r\n                        <ul class=\"code\">\r\n                        <li>\r\n                        <div id=\"test-None_719\">\r\n                            <strong class=\"cql-class\">None</strong>\r\n                        </div></li>\r\n                        </ul></li>\r\n                    </ul>\r\n                    </div></li>\r\n                    </ul>\r\n                </div>\r\n                <h3><a name=\"d1e649\" href=\"#toc\">Definitions</a></h3>\r\n                <div>\r\n                    <ul style=\"list-style:none;padding-left: 10px;\">\r\n                    <li style=\"list-style:none;\" class=\"list-unstyled\">\r\n                    <div>\r\n                    <ul style=\"list-style:none;padding-left:0;\" class=\"list-unstyled\">\r\n                        <li class=\"list-unstyled\">\r\n                        <div class=\"treeview hover p-l-10\">\r\n                        <input id=\"test-Denominator_105\" type=\"checkbox\"/>\r\n                        <label for=\"test-Denominator_105\" class=\"list-header\"><strong> Denominator</strong></label>\r\n                        <ul style=\"margin-right: 20%; opacity: 1;\" class=\"code\">\r\n                        <li class=\"list-unstyled\">\r\n                            <div>\r\n                            <ul style=\"padding-left: 0px;\">\r\n                            <li style=\"padding-left: 0px;\" class=\"list-unstyled\">\r\n                            <div>\r\n                                <pre class=\"cql-definition-body\">TJC.&quot;Ischemic Stroke Encounter&quot;</pre>\r\n                            </div></li>\r\n                            </ul>%26nbsp;\r\n                            </div></li>\r\n                        </ul>\r\n                        </div></li>\r\n                    </ul>\r\n                    <ul style=\"list-style:none;padding-left:0;\" class=\"list-unstyled\">\r\n                        <li class=\"list-unstyled\">\r\n                        <div class=\"treeview hover p-l-10\">\r\n                        <input id=\"test-Denominator_Exceptions_100\" type=\"checkbox\"/>\r\n                        <label for=\"test-Denominator_Exceptions_100\" class=\"list-header\"><strong> Denominator Exceptions</strong></label>\r\n                        <ul style=\"margin-right: 20%; opacity: 1;\" class=\"code\">\r\n                        <li class=\"list-unstyled\">\r\n                            <div>\r\n                            <ul style=\"padding-left: 0px;\">\r\n                            <li style=\"padding-left: 0px;\" class=\"list-unstyled\">\r\n                            <div>\r\n                                <pre class=\"cql-definition-body\">( TJC.&quot;Ischemic Stroke Encounter&quot; IschemicStrokeEncounter\r\n                    with &quot;Statin Not Given at Discharge&quot; NoDischargeStatin\r\n                    such that NoDischargeStatin.authorDatetime during IschemicStrokeEncounter.relevantPeriod\r\n                )\r\n                union ( TJC.&quot;Ischemic Stroke Encounter&quot; IschemicStrokeEncounter\r\n                    with &quot;Statin Allergy&quot; StatinAllergy\r\n                        such that StatinAllergy.prevalencePeriod starts on or before end of IschemicStrokeEncounter.relevantPeriod\r\n                )\r\n                union &quot;Encounter with Max LDL less than 70 mg per dL&quot;</pre>\r\n                            </div></li>\r\n                            </ul>%26nbsp;\r\n                            </div></li>\r\n                        </ul>\r\n                        </div></li>\r\n                    </ul>\r\n                    <ul style=\"list-style:none;padding-left:0;\" class=\"list-unstyled\">\r\n                        <li class=\"list-unstyled\">\r\n                        <div class=\"treeview hover p-l-10\">\r\n                        <input id=\"test-Denominator_Exclusions_204\" type=\"checkbox\"/>\r\n                        <label for=\"test-Denominator_Exclusions_204\" class=\"list-header\"><strong> Denominator Exclusions</strong></label>\r\n                        <ul style=\"margin-right: 20%; opacity: 1;\" class=\"code\">\r\n                        <li class=\"list-unstyled\">\r\n                            <div>\r\n                            <ul style=\"padding-left: 0px;\">\r\n                            <li style=\"padding-left: 0px;\" class=\"list-unstyled\">\r\n                            <div>\r\n                                <pre class=\"cql-definition-body\">TJC.&quot;Ischemic Stroke Encounters with Discharge Disposition&quot;\r\n                union TJC.&quot;Comfort Measures during Hospitalization&quot;</pre>\r\n                            </div></li>\r\n                            </ul>%26nbsp;\r\n                            </div></li>\r\n                        </ul>\r\n                        </div></li>\r\n                    </ul>\r\n                    <ul style=\"list-style:none;padding-left:0;\" class=\"list-unstyled\">\r\n                        <li class=\"list-unstyled\">\r\n                        <div class=\"treeview hover p-l-10\">\r\n                        <input id=\"test-Encounter_with_Max_LDL_less_than_70_mg_per_dL_460\" type=\"checkbox\"/>\r\n                        <label for=\"test-Encounter_with_Max_LDL_less_than_70_mg_per_dL_460\" class=\"list-header\"><strong> Encounter with Max LDL less than 70 mg per dL</strong></label>\r\n                        <ul style=\"margin-right: 20%; opacity: 1;\" class=\"code\">\r\n                        <li class=\"list-unstyled\">\r\n                            <div>\r\n                            <ul style=\"padding-left: 0px;\">\r\n                            <li style=\"padding-left: 0px;\" class=\"list-unstyled\">\r\n                            <div>\r\n                                <pre class=\"cql-definition-body\">TJC.&quot;Ischemic Stroke Encounter&quot; IschemicStrokeEncounter\r\n                where Max([&quot;Laboratory Test, Performed&quot;: &quot;LDL-c&quot;] Ldl\r\n                    where Ldl.resultDatetime during Interval[Global.&quot;ToDate&quot;(start of IschemicStrokeEncounter.relevantPeriod - 30 days), end of IschemicStrokeEncounter.relevantPeriod]\r\n                    return Ldl.result as Quantity\r\n                )%26lt; 70 'mg/dL'</pre>\r\n                            </div></li>\r\n                            </ul>%26nbsp;\r\n                            </div></li>\r\n                        </ul>\r\n                        </div></li>\r\n                    </ul>\r\n                    <ul style=\"list-style:none;padding-left:0;\" class=\"list-unstyled\">\r\n                        <li class=\"list-unstyled\">\r\n                        <div class=\"treeview hover p-l-10\">\r\n                        <input id=\"test-Initial_Population_603\" type=\"checkbox\"/>\r\n                        <label for=\"test-Initial_Population_603\" class=\"list-header\"><strong> Initial Population</strong></label>\r\n                        <ul style=\"margin-right: 20%; opacity: 1;\" class=\"code\">\r\n                        <li class=\"list-unstyled\">\r\n                            <div>\r\n                            <ul style=\"padding-left: 0px;\">\r\n                            <li style=\"padding-left: 0px;\" class=\"list-unstyled\">\r\n                            <div>\r\n                                <pre class=\"cql-definition-body\">TJC.&quot;Encounter with Principal Diagnosis and Age&quot;</pre>\r\n                            </div></li>\r\n                            </ul>%26nbsp;\r\n                            </div></li>\r\n                        </ul>\r\n                        </div></li>\r\n                    </ul>\r\n                    <ul style=\"list-style:none;padding-left:0;\" class=\"list-unstyled\">\r\n                        <li class=\"list-unstyled\">\r\n                        <div class=\"treeview hover p-l-10\">\r\n                        <input id=\"test-Numerator_889\" type=\"checkbox\"/>\r\n                        <label for=\"test-Numerator_889\" class=\"list-header\"><strong> Numerator</strong></label>\r\n                        <ul style=\"margin-right: 20%; opacity: 1;\" class=\"code\">\r\n                        <li class=\"list-unstyled\">\r\n                            <div>\r\n                            <ul style=\"padding-left: 0px;\">\r\n                            <li style=\"padding-left: 0px;\" class=\"list-unstyled\">\r\n                            <div>\r\n                                <pre class=\"cql-definition-body\">TJC.&quot;Ischemic Stroke Encounter&quot; IschemicStrokeEncounter\r\n                with &quot;Statin at Discharge&quot; DischargeStatin\r\n                    such that DischargeStatin.authorDatetime during IschemicStrokeEncounter.relevantPeriod</pre>\r\n                            </div></li>\r\n                            </ul>%26nbsp;\r\n                            </div></li>\r\n                        </ul>\r\n                        </div></li>\r\n                    </ul>\r\n                    <ul style=\"list-style:none;padding-left:0;\" class=\"list-unstyled\">\r\n                        <li class=\"list-unstyled\">\r\n                        <div class=\"treeview hover p-l-10\">\r\n                        <input id=\"test-SDE_Ethnicity_86\" type=\"checkbox\"/>\r\n                        <label for=\"test-SDE_Ethnicity_86\" class=\"list-header\"><strong> SDE Ethnicity</strong></label>\r\n                        <ul style=\"margin-right: 20%; opacity: 1;\" class=\"code\">\r\n                        <li class=\"list-unstyled\">\r\n                            <div>\r\n                            <ul style=\"padding-left: 0px;\">\r\n                            <li style=\"padding-left: 0px;\" class=\"list-unstyled\">\r\n                            <div>\r\n                                <pre class=\"cql-definition-body\">[&quot;Patient Characteristic Ethnicity&quot;: &quot;Ethnicity&quot;]</pre>\r\n                            </div></li>\r\n                            </ul>%26nbsp;\r\n                            </div></li>\r\n                        </ul>\r\n                        </div></li>\r\n                    </ul>\r\n                    <ul style=\"list-style:none;padding-left:0;\" class=\"list-unstyled\">\r\n                        <li class=\"list-unstyled\">\r\n                        <div class=\"treeview hover p-l-10\">\r\n                        <input id=\"test-SDE_Payer_85\" type=\"checkbox\"/>\r\n                        <label for=\"test-SDE_Payer_85\" class=\"list-header\"><strong> SDE Payer</strong></label>\r\n                        <ul style=\"margin-right: 20%; opacity: 1;\" class=\"code\">\r\n                        <li class=\"list-unstyled\">\r\n                            <div>\r\n                            <ul style=\"padding-left: 0px;\">\r\n                            <li style=\"padding-left: 0px;\" class=\"list-unstyled\">\r\n                            <div>\r\n                                <pre class=\"cql-definition-body\">[&quot;Patient Characteristic Payer&quot;: &quot;Payer&quot;]</pre>\r\n                            </div></li>\r\n                            </ul>%26nbsp;\r\n                            </div></li>\r\n                        </ul>\r\n                        </div></li>\r\n                    </ul>\r\n                    <ul style=\"list-style:none;padding-left:0;\" class=\"list-unstyled\">\r\n                        <li class=\"list-unstyled\">\r\n                        <div class=\"treeview hover p-l-10\">\r\n                        <input id=\"test-SDE_Race_499\" type=\"checkbox\"/>\r\n                        <label for=\"test-SDE_Race_499\" class=\"list-header\"><strong> SDE Race</strong></label>\r\n                        <ul style=\"margin-right: 20%; opacity: 1;\" class=\"code\">\r\n                        <li class=\"list-unstyled\">\r\n                            <div>\r\n                            <ul style=\"padding-left: 0px;\">\r\n                            <li style=\"padding-left: 0px;\" class=\"list-unstyled\">\r\n                            <div>\r\n                                <pre class=\"cql-definition-body\">[&quot;Patient Characteristic Race&quot;: &quot;Race&quot;]</pre>\r\n                            </div></li>\r\n                            </ul>%26nbsp;\r\n                            </div></li>\r\n                        </ul>\r\n                        </div></li>\r\n                    </ul>\r\n                    <ul style=\"list-style:none;padding-left:0;\" class=\"list-unstyled\">\r\n                        <li class=\"list-unstyled\">\r\n                        <div class=\"treeview hover p-l-10\">\r\n                        <input id=\"test-SDE_Sex_77\" type=\"checkbox\"/>\r\n                        <label for=\"test-SDE_Sex_77\" class=\"list-header\"><strong> SDE Sex</strong></label>\r\n                        <ul style=\"margin-right: 20%; opacity: 1;\" class=\"code\">\r\n                        <li class=\"list-unstyled\">\r\n                            <div>\r\n                            <ul style=\"padding-left: 0px;\">\r\n                            <li style=\"padding-left: 0px;\" class=\"list-unstyled\">\r\n                            <div>\r\n                                <pre class=\"cql-definition-body\">[&quot;Patient Characteristic Sex&quot;: &quot;ONC Administrative Sex&quot;] </pre>\r\n                            </div></li>\r\n                            </ul>%26nbsp;\r\n                            </div></li>\r\n                        </ul>\r\n                        </div></li>\r\n                    </ul>\r\n                    <ul style=\"list-style:none;padding-left:0;\" class=\"list-unstyled\">\r\n                        <li class=\"list-unstyled\">\r\n                        <div class=\"treeview hover p-l-10\">\r\n                        <input id=\"test-Statin_Allergy_455\" type=\"checkbox\"/>\r\n                        <label for=\"test-Statin_Allergy_455\" class=\"list-header\"><strong> Statin Allergy</strong></label>\r\n                        <ul style=\"margin-right: 20%; opacity: 1;\" class=\"code\">\r\n                        <li class=\"list-unstyled\">\r\n                            <div>\r\n                            <ul style=\"padding-left: 0px;\">\r\n                            <li style=\"padding-left: 0px;\" class=\"list-unstyled\">\r\n                            <div>\r\n                                <pre class=\"cql-definition-body\">[&quot;Allergy/Intolerance&quot;: &quot;Statin Allergen&quot;]</pre>\r\n                            </div></li>\r\n                            </ul>%26nbsp;\r\n                            </div></li>\r\n                        </ul>\r\n                        </div></li>\r\n                    </ul>\r\n                    <ul style=\"list-style:none;padding-left:0;\" class=\"list-unstyled\">\r\n                        <li class=\"list-unstyled\">\r\n                        <div class=\"treeview hover p-l-10\">\r\n                        <input id=\"test-Statin_at_Discharge_136\" type=\"checkbox\"/>\r\n                        <label for=\"test-Statin_at_Discharge_136\" class=\"list-header\"><strong> Statin at Discharge</strong></label>\r\n                        <ul style=\"margin-right: 20%; opacity: 1;\" class=\"code\">\r\n                        <li class=\"list-unstyled\">\r\n                            <div>\r\n                            <ul style=\"padding-left: 0px;\">\r\n                            <li style=\"padding-left: 0px;\" class=\"list-unstyled\">\r\n                            <div>\r\n                                <pre class=\"cql-definition-body\">[&quot;Medication, Discharge&quot;: &quot;Statin Grouper&quot;]</pre>\r\n                            </div></li>\r\n                            </ul>%26nbsp;\r\n                            </div></li>\r\n                        </ul>\r\n                        </div></li>\r\n                    </ul>\r\n                    <ul style=\"list-style:none;padding-left:0;\" class=\"list-unstyled\">\r\n                        <li class=\"list-unstyled\">\r\n                        <div class=\"treeview hover p-l-10\">\r\n                        <input id=\"test-Statin_Not_Given_at_Discharge_73\" type=\"checkbox\"/>\r\n                        <label for=\"test-Statin_Not_Given_at_Discharge_73\" class=\"list-header\"><strong> Statin Not Given at Discharge</strong></label>\r\n                        <ul style=\"margin-right: 20%; opacity: 1;\" class=\"code\">\r\n                        <li class=\"list-unstyled\">\r\n                            <div>\r\n                            <ul style=\"padding-left: 0px;\">\r\n                            <li style=\"padding-left: 0px;\" class=\"list-unstyled\">\r\n                            <div>\r\n                                <pre class=\"cql-definition-body\">[&quot;Medication, Not Discharged&quot;: &quot;Statin Grouper&quot;] NoStatinDischarge\r\n                where NoStatinDischarge.negationRationale in &quot;Medical Reason&quot;\r\n                    or NoStatinDischarge.negationRationale in &quot;Patient Refusal&quot;</pre>\r\n                            </div></li>\r\n                            </ul>%26nbsp;\r\n                            </div></li>\r\n                        </ul>\r\n                        </div></li>\r\n                    </ul>\r\n                    <ul style=\"list-style:none;padding-left:0;\" class=\"list-unstyled\">\r\n                        <li class=\"list-unstyled\">\r\n                        <div class=\"treeview hover p-l-10\">\r\n                        <input id=\"test-TJC.All_Stroke_Encounter_654\" type=\"checkbox\"/>\r\n                        <label for=\"test-TJC.All_Stroke_Encounter_654\" class=\"list-header\"><strong> TJC.All Stroke Encounter</strong></label>\r\n                        <ul style=\"margin-right: 20%; opacity: 1;\" class=\"code\">\r\n                        <li class=\"list-unstyled\">\r\n                            <div>\r\n                            <ul style=\"padding-left: 0px;\">\r\n                            <li style=\"padding-left: 0px;\" class=\"list-unstyled\">\r\n                            <div>\r\n                                <pre class=\"cql-definition-body\">&quot;Non Elective Inpatient Encounter&quot; NonElectiveEncounter\r\n                where NonElectiveEncounter.principalDiagnosis in &quot;Hemorrhagic Stroke&quot;\r\n                    or NonElectiveEncounter.principalDiagnosis in &quot;Ischemic Stroke&quot;</pre>\r\n                            </div></li>\r\n                            </ul>%26nbsp;\r\n                            </div></li>\r\n                        </ul>\r\n                        </div></li>\r\n                    </ul>\r\n                    <ul style=\"list-style:none;padding-left:0;\" class=\"list-unstyled\">\r\n                        <li class=\"list-unstyled\">\r\n                        <div class=\"treeview hover p-l-10\">\r\n                        <input id=\"test-TJC.Comfort_Measures_during_Hospitalization_603\" type=\"checkbox\"/>\r\n                        <label for=\"test-TJC.Comfort_Measures_during_Hospitalization_603\" class=\"list-header\"><strong> TJC.Comfort Measures during Hospitalization</strong></label>\r\n                        <ul style=\"margin-right: 20%; opacity: 1;\" class=\"code\">\r\n                        <li class=\"list-unstyled\">\r\n                            <div>\r\n                            <ul style=\"padding-left: 0px;\">\r\n                            <li style=\"padding-left: 0px;\" class=\"list-unstyled\">\r\n                            <div>\r\n                                <pre class=\"cql-definition-body\">&quot;Ischemic Stroke Encounter&quot; IschemicStrokeEncounter\r\n                with &quot;Intervention Comfort Measures&quot; ComfortMeasure\r\n                    such that Coalesce(start of ComfortMeasure.relevantPeriod, ComfortMeasure.authorDatetime)during Global.&quot;HospitalizationWithObservation&quot;(IschemicStrokeEncounter)</pre>\r\n                            </div></li>\r\n                            </ul>%26nbsp;\r\n                            </div></li>\r\n                        </ul>\r\n                        </div></li>\r\n                    </ul>\r\n                    <ul style=\"list-style:none;padding-left:0;\" class=\"list-unstyled\">\r\n                        <li class=\"list-unstyled\">\r\n                        <div class=\"treeview hover p-l-10\">\r\n                        <input id=\"test-TJC.Encounter_with_Principal_Diagnosis_and_Age_702\" type=\"checkbox\"/>\r\n                        <label for=\"test-TJC.Encounter_with_Principal_Diagnosis_and_Age_702\" class=\"list-header\"><strong> TJC.Encounter with Principal Diagnosis and Age</strong></label>\r\n                        <ul style=\"margin-right: 20%; opacity: 1;\" class=\"code\">\r\n                        <li class=\"list-unstyled\">\r\n                            <div>\r\n                            <ul style=\"padding-left: 0px;\">\r\n                            <li style=\"padding-left: 0px;\" class=\"list-unstyled\">\r\n                            <div>\r\n                                <pre class=\"cql-definition-body\">&quot;All Stroke Encounter&quot; AllStrokeEncounter\r\n                with [&quot;Patient Characteristic Birthdate&quot;: &quot;Birth date&quot;] BirthDate\r\n                    such that Global.&quot;CalendarAgeInYearsAt&quot;(BirthDate.birthDatetime, start of AllStrokeEncounter.relevantPeriod)%26gt;= 18</pre>\r\n                            </div></li>\r\n                            </ul>%26nbsp;\r\n                            </div></li>\r\n                        </ul>\r\n                        </div></li>\r\n                    </ul>\r\n                    <ul style=\"list-style:none;padding-left:0;\" class=\"list-unstyled\">\r\n                        <li class=\"list-unstyled\">\r\n                        <div class=\"treeview hover p-l-10\">\r\n                        <input id=\"test-TJC.Intervention_Comfort_Measures_365\" type=\"checkbox\"/>\r\n                        <label for=\"test-TJC.Intervention_Comfort_Measures_365\" class=\"list-header\"><strong> TJC.Intervention Comfort Measures</strong></label>\r\n                        <ul style=\"margin-right: 20%; opacity: 1;\" class=\"code\">\r\n                        <li class=\"list-unstyled\">\r\n                            <div>\r\n                            <ul style=\"padding-left: 0px;\">\r\n                            <li style=\"padding-left: 0px;\" class=\"list-unstyled\">\r\n                            <div>\r\n                                <pre class=\"cql-definition-body\">[&quot;Intervention, Order&quot;: &quot;Comfort Measures&quot;]\r\n                union [&quot;Intervention, Performed&quot;: &quot;Comfort Measures&quot;]</pre>\r\n                            </div></li>\r\n                            </ul>%26nbsp;\r\n                            </div></li>\r\n                        </ul>\r\n                        </div></li>\r\n                    </ul>\r\n                    <ul style=\"list-style:none;padding-left:0;\" class=\"list-unstyled\">\r\n                        <li class=\"list-unstyled\">\r\n                        <div class=\"treeview hover p-l-10\">\r\n                        <input id=\"test-TJC.Ischemic_Stroke_Encounter_432\" type=\"checkbox\"/>\r\n                        <label for=\"test-TJC.Ischemic_Stroke_Encounter_432\" class=\"list-header\"><strong> TJC.Ischemic Stroke Encounter</strong></label>\r\n                        <ul style=\"margin-right: 20%; opacity: 1;\" class=\"code\">\r\n                        <li class=\"list-unstyled\">\r\n                            <div>\r\n                            <ul style=\"padding-left: 0px;\">\r\n                            <li style=\"padding-left: 0px;\" class=\"list-unstyled\">\r\n                            <div>\r\n                                <pre class=\"cql-definition-body\">&quot;Encounter with Principal Diagnosis and Age&quot; EncounterWithAge\r\n                where EncounterWithAge.principalDiagnosis in &quot;Ischemic Stroke&quot;</pre>\r\n                            </div></li>\r\n                            </ul>%26nbsp;\r\n                            </div></li>\r\n                        </ul>\r\n                        </div></li>\r\n                    </ul>\r\n                    <ul style=\"list-style:none;padding-left:0;\" class=\"list-unstyled\">\r\n                        <li class=\"list-unstyled\">\r\n                        <div class=\"treeview hover p-l-10\">\r\n                        <input id=\"test-TJC.Ischemic_Stroke_Encounters_with_Discharge_Disposition_985\" type=\"checkbox\"/>\r\n                        <label for=\"test-TJC.Ischemic_Stroke_Encounters_with_Discharge_Disposition_985\" class=\"list-header\"><strong> TJC.Ischemic Stroke Encounters with Discharge Disposition</strong></label>\r\n                        <ul style=\"margin-right: 20%; opacity: 1;\" class=\"code\">\r\n                        <li class=\"list-unstyled\">\r\n                            <div>\r\n                            <ul style=\"padding-left: 0px;\">\r\n                            <li style=\"padding-left: 0px;\" class=\"list-unstyled\">\r\n                            <div>\r\n                                <pre class=\"cql-definition-body\">( ( &quot;Ischemic Stroke Encounter&quot; IschemicStrokeEncounter\r\n                    where IschemicStrokeEncounter.dischargeDisposition in &quot;Discharge To Acute Care Facility&quot;\r\n                        or IschemicStrokeEncounter.dischargeDisposition in &quot;Left Against Medical Advice&quot;\r\n                        or IschemicStrokeEncounter.dischargeDisposition in &quot;Patient Expired&quot;\r\n                        or IschemicStrokeEncounter.dischargeDisposition in &quot;Discharged to Home for Hospice Care&quot;\r\n                        or IschemicStrokeEncounter.dischargeDisposition in &quot;Discharged to Health Care Facility for Hospice Care&quot;\r\n                )\r\n                )</pre>\r\n                            </div></li>\r\n                            </ul>%26nbsp;\r\n                            </div></li>\r\n                        </ul>\r\n                        </div></li>\r\n                    </ul>\r\n                    <ul style=\"list-style:none;padding-left:0;\" class=\"list-unstyled\">\r\n                        <li class=\"list-unstyled\">\r\n                        <div class=\"treeview hover p-l-10\">\r\n                        <input id=\"test-TJC.Non_Elective_Inpatient_Encounter_610\" type=\"checkbox\"/>\r\n                        <label for=\"test-TJC.Non_Elective_Inpatient_Encounter_610\" class=\"list-header\"><strong> TJC.Non Elective Inpatient Encounter</strong></label>\r\n                        <ul style=\"margin-right: 20%; opacity: 1;\" class=\"code\">\r\n                        <li class=\"list-unstyled\">\r\n                            <div>\r\n                            <ul style=\"padding-left: 0px;\">\r\n                            <li style=\"padding-left: 0px;\" class=\"list-unstyled\">\r\n                            <div>\r\n                                <pre class=\"cql-definition-body\">[&quot;Encounter, Performed&quot;: &quot;Non-Elective Inpatient Encounter&quot;] NonElectiveEncounter\r\n                where Global.&quot;LengthInDays&quot;(NonElectiveEncounter.relevantPeriod)%26lt;= 120\r\n                    and NonElectiveEncounter.relevantPeriod ends during &quot;Measurement Period&quot;</pre>\r\n                            </div></li>\r\n                            </ul>%26nbsp;\r\n                            </div></li>\r\n                        </ul>\r\n                        </div></li>\r\n                    </ul>\r\n                    </div></li>\r\n                    </ul>\r\n                </div>\r\n                <h3><a name=\"d1e650\" href=\"#toc\">Functions</a></h3>\r\n                <div>\r\n                    <ul style=\"list-style:none;padding-left: 10px;\">\r\n                    <li style=\"list-style:none;\" class=\"list-unstyled\">\r\n                    <div>\r\n                    <ul style=\"list-style:none;padding-left:0;\" class=\"list-unstyled\">\r\n                        <li class=\"list-unstyled\">\r\n                        <div class=\"treeview hover p-l-10\">\r\n                        <input id=\"test-Global.CalendarAgeInYearsAt_913\" type=\"checkbox\"/>\r\n                        <label for=\"test-Global.CalendarAgeInYearsAt_913\" class=\"list-header\"><strong> Global.CalendarAgeInYearsAt(BirthDateTime DateTime, AsOf DateTime)</strong></label>\r\n                        <ul style=\"margin-right: 20%; opacity: 1;\" class=\"code\">\r\n                        <li class=\"list-unstyled\">\r\n                            <div>\r\n                            <ul style=\"padding-left: 0px;\">\r\n                            <li style=\"padding-left: 0px;\" class=\"list-unstyled\">\r\n                            <div>\r\n                                <pre class=\"cql-definition-body\">years between ToDate(BirthDateTime)and ToDate(AsOf)</pre>\r\n                            </div></li>\r\n                            </ul>%26nbsp;\r\n                            </div></li>\r\n                        </ul>\r\n                        </div></li>\r\n                    </ul>\r\n                    <ul style=\"list-style:none;padding-left:0;\" class=\"list-unstyled\">\r\n                        <li class=\"list-unstyled\">\r\n                        <div class=\"treeview hover p-l-10\">\r\n                        <input id=\"test-Global.HospitalizationWithObservation_692\" type=\"checkbox\"/>\r\n                        <label for=\"test-Global.HospitalizationWithObservation_692\" class=\"list-header\"><strong> Global.HospitalizationWithObservation(Encounter &quot;Encounter, Performed&quot;)</strong></label>\r\n                        <ul style=\"margin-right: 20%; opacity: 1;\" class=\"code\">\r\n                        <li class=\"list-unstyled\">\r\n                            <div>\r\n                            <ul style=\"padding-left: 0px;\">\r\n                            <li style=\"padding-left: 0px;\" class=\"list-unstyled\">\r\n                            <div>\r\n                                <pre class=\"cql-definition-body\">Encounter Visit\r\n                let ObsVisit: Last([&quot;Encounter, Performed&quot;: &quot;Observation Services&quot;] LastObs\r\n                    where LastObs.relevantPeriod ends 1 hour or less on or before start of Visit.relevantPeriod\r\n                    sort by \r\n                    end of relevantPeriod\r\n                ),\r\n                VisitStart: Coalesce(start of ObsVisit.relevantPeriod, start of Visit.relevantPeriod),\r\n                EDVisit: Last([&quot;Encounter, Performed&quot;: &quot;Emergency Department Visit&quot;] LastED\r\n                    where LastED.relevantPeriod ends 1 hour or less on or before VisitStart\r\n                    sort by \r\n                    end of relevantPeriod\r\n                )\r\n                return Interval[Coalesce(start of EDVisit.relevantPeriod, VisitStart), \r\n                end of Visit.relevantPeriod]</pre>\r\n                            </div></li>\r\n                            </ul>%26nbsp;\r\n                            </div></li>\r\n                        </ul>\r\n                        </div></li>\r\n                    </ul>\r\n                    <ul style=\"list-style:none;padding-left:0;\" class=\"list-unstyled\">\r\n                        <li class=\"list-unstyled\">\r\n                        <div class=\"treeview hover p-l-10\">\r\n                        <input id=\"test-Global.LengthInDays_732\" type=\"checkbox\"/>\r\n                        <label for=\"test-Global.LengthInDays_732\" class=\"list-header\"><strong> Global.LengthInDays(Value Interval%26lt;DateTime%26gt;)</strong></label>\r\n                        <ul style=\"margin-right: 20%; opacity: 1;\" class=\"code\">\r\n                        <li class=\"list-unstyled\">\r\n                            <div>\r\n                            <ul style=\"padding-left: 0px;\">\r\n                            <li style=\"padding-left: 0px;\" class=\"list-unstyled\">\r\n                            <div>\r\n                                <pre class=\"cql-definition-body\">difference in days between start of Value and end of Value</pre>\r\n                            </div></li>\r\n                            </ul>%26nbsp;\r\n                            </div></li>\r\n                        </ul>\r\n                        </div></li>\r\n                    </ul>\r\n                    <ul style=\"list-style:none;padding-left:0;\" class=\"list-unstyled\">\r\n                        <li class=\"list-unstyled\">\r\n                        <div class=\"treeview hover p-l-10\">\r\n                        <input id=\"test-Global.ToDate_606\" type=\"checkbox\"/>\r\n                        <label for=\"test-Global.ToDate_606\" class=\"list-header\"><strong> Global.ToDate(Value DateTime)</strong></label>\r\n                        <ul style=\"margin-right: 20%; opacity: 1;\" class=\"code\">\r\n                        <li class=\"list-unstyled\">\r\n                            <div>\r\n                            <ul style=\"padding-left: 0px;\">\r\n                            <li style=\"padding-left: 0px;\" class=\"list-unstyled\">\r\n                            <div>\r\n                                <pre class=\"cql-definition-body\">DateTime(year from Value, month from Value, day from Value, 0, 0, 0, 0, timezone from Value)</pre>\r\n                            </div></li>\r\n                            </ul>%26nbsp;\r\n                            </div></li>\r\n                        </ul>\r\n                        </div></li>\r\n                    </ul>\r\n                    </div></li>\r\n                    </ul>\r\n                </div>\r\n                <h3><a name=\"d1e555\" href=\"#toc\">Terminology</a></h3>\r\n                <div>\r\n                    <ul style=\"padding-left: 50px;\">\r\n                    <li style=\"width:80%\">code &quot;Birth date&quot; (&quot;LOINC Code (21112-8)&quot;)</li>\r\n                    <li>valueset &quot;Comfort Measures&quot; (1.3.6.1.4.1.33895.1.3.0.45)</li>\r\n                    <li>valueset &quot;Discharge To Acute Care Facility&quot; (2.16.840.1.113883.3.117.1.7.1.87)</li>\r\n                    <li>valueset &quot;Discharged to Health Care Facility for Hospice Care&quot; (2.16.840.1.113883.3.117.1.7.1.207)</li>\r\n                    <li>valueset &quot;Discharged to Home for Hospice Care&quot; (2.16.840.1.113883.3.117.1.7.1.209)</li>\r\n                    <li>valueset &quot;Emergency Department Visit&quot; (2.16.840.1.113883.3.117.1.7.1.292)</li>\r\n                    <li>valueset &quot;Ethnicity&quot; (2.16.840.1.114222.4.11.837)</li>\r\n                    <li>valueset &quot;Hemorrhagic Stroke&quot; (2.16.840.1.113883.3.117.1.7.1.212)</li>\r\n                    <li>valueset &quot;Ischemic Stroke&quot; (2.16.840.1.113883.3.117.1.7.1.247)</li>\r\n                    <li>valueset &quot;LDL-c&quot; (2.16.840.1.113883.3.117.1.7.1.215)</li>\r\n                    <li>valueset &quot;Left Against Medical Advice&quot; (2.16.840.1.113883.3.117.1.7.1.308)</li>\r\n                    <li>valueset &quot;Medical Reason&quot; (2.16.840.1.113883.3.117.1.7.1.473)</li>\r\n                    <li>valueset &quot;Non-Elective Inpatient Encounter&quot; (2.16.840.1.113883.3.117.1.7.1.424)</li>\r\n                    <li>valueset &quot;Observation Services&quot; (2.16.840.1.113762.1.4.1111.143)</li>\r\n                    <li>valueset &quot;ONC Administrative Sex&quot; (2.16.840.1.113762.1.4.1)</li>\r\n                    <li>valueset &quot;Patient Expired&quot; (2.16.840.1.113883.3.117.1.7.1.309)</li>\r\n                    <li>valueset &quot;Patient Refusal&quot; (2.16.840.1.113883.3.117.1.7.1.93)</li>\r\n                    <li>valueset &quot;Payer&quot; (2.16.840.1.114222.4.11.3591)</li>\r\n                    <li>valueset &quot;Race&quot; (2.16.840.1.114222.4.11.836)</li>\r\n                    <li>valueset &quot;Statin Allergen&quot; (2.16.840.1.113762.1.4.1110.42)</li>\r\n                    <li>valueset &quot;Statin Grouper&quot; (2.16.840.1.113762.1.4.1110.19)</li>\r\n                    </ul>\r\n                </div>\r\n                <h3><a name=\"d1e647\" href=\"#toc\">Data Criteria (QDM Data Elements)</a></h3>\r\n                <ul style=\"padding-left: 50px;\">\r\n                    <li style=\"width:80%\">&quot;Allergy/Intolerance: Statin Allergen&quot; using &quot;Statin Allergen (2.16.840.1.113762.1.4.1110.42)&quot;</li>\r\n                    <li style=\"width:80%\">&quot;Encounter, Performed: Emergency Department Visit&quot; using &quot;Emergency Department Visit (2.16.840.1.113883.3.117.1.7.1.292)&quot;</li>\r\n                    <li style=\"width:80%\">&quot;Encounter, Performed: Non-Elective Inpatient Encounter&quot; using &quot;Non-Elective Inpatient Encounter (2.16.840.1.113883.3.117.1.7.1.424)&quot;</li>\r\n                    <li style=\"width:80%\">&quot;Encounter, Performed: Observation Services&quot; using &quot;Observation Services (2.16.840.1.113762.1.4.1111.143)&quot;</li>\r\n                    <li style=\"width:80%\">&quot;Intervention, Order: Comfort Measures&quot; using &quot;Comfort Measures (1.3.6.1.4.1.33895.1.3.0.45)&quot;</li>\r\n                    <li style=\"width:80%\">&quot;Intervention, Performed: Comfort Measures&quot; using &quot;Comfort Measures (1.3.6.1.4.1.33895.1.3.0.45)&quot;</li>\r\n                    <li style=\"width:80%\">&quot;Laboratory Test, Performed: LDL-c&quot; using &quot;LDL-c (2.16.840.1.113883.3.117.1.7.1.215)&quot;</li>\r\n                    <li style=\"width:80%\">&quot;Medication, Discharge: Statin Grouper&quot; using &quot;Statin Grouper (2.16.840.1.113762.1.4.1110.19)&quot;</li>\r\n                    <li style=\"width:80%\">&quot;Medication, Not Discharged: Statin Grouper&quot; using &quot;Statin Grouper (2.16.840.1.113762.1.4.1110.19)&quot;</li>\r\n                    <li style=\"width:80%\">&quot;Patient Characteristic Ethnicity: Ethnicity&quot; using &quot;Ethnicity (2.16.840.1.114222.4.11.837)&quot;</li>\r\n                    <li style=\"width:80%\">&quot;Patient Characteristic Payer: Payer&quot; using &quot;Payer (2.16.840.1.114222.4.11.3591)&quot;</li>\r\n                    <li style=\"width:80%\">&quot;Patient Characteristic Race: Race&quot; using &quot;Race (2.16.840.1.114222.4.11.836)&quot;</li>\r\n                    <li style=\"width:80%\">&quot;Patient Characteristic Sex: ONC Administrative Sex&quot; using &quot;ONC Administrative Sex (2.16.840.1.113762.1.4.1)&quot;</li>\r\n                    <li style=\"width:80%\">&quot;Patient Characteristic Birthdate: Birth date&quot; using &quot;Birth date (LOINC Code 21112-8)&quot;</li>\r\n                </ul>\r\n                <h3><a name=\"d1e767\" href=\"#toc\">Supplemental Data Elements</a></h3>\r\n                <div>\r\n                    <ul style=\"list-style:none;padding-left: 25px;\">\r\n                    <li class=\"list-unstyled\">\r\n                    <div class=\"treeview hover p-l-10\">\r\n                    <input id=\"test-SDE_Ethnicity_971\" type=\"checkbox\"/>\r\n                    <label for=\"test-SDE_Ethnicity_971\" class=\"list-header\"><strong> SDE Ethnicity</strong></label>\r\n                    <ul style=\"margin-right: 20%; opacity: 1;\" class=\"code\">\r\n                        <li class=\"list-unstyled\">\r\n                        <div>\r\n                        <ul style=\"padding-left: 0px;\">\r\n                        <li style=\"padding-left: 0px;\" class=\"list-unstyled\">\r\n                            <div>\r\n                            <pre class=\"cql-definition-body\">[&quot;Patient Characteristic Ethnicity&quot;: &quot;Ethnicity&quot;]</pre>\r\n                            </div></li>\r\n                        </ul>%26nbsp;\r\n                        </div></li>\r\n                    </ul>\r\n                    </div></li>\r\n                    <li class=\"list-unstyled\">\r\n                    <div class=\"treeview hover p-l-10\">\r\n                    <input id=\"test-SDE_Payer_645\" type=\"checkbox\"/>\r\n                    <label for=\"test-SDE_Payer_645\" class=\"list-header\"><strong> SDE Payer</strong></label>\r\n                    <ul style=\"margin-right: 20%; opacity: 1;\" class=\"code\">\r\n                        <li class=\"list-unstyled\">\r\n                        <div>\r\n                        <ul style=\"padding-left: 0px;\">\r\n                        <li style=\"padding-left: 0px;\" class=\"list-unstyled\">\r\n                            <div>\r\n                            <pre class=\"cql-definition-body\">[&quot;Patient Characteristic Payer&quot;: &quot;Payer&quot;]</pre>\r\n                            </div></li>\r\n                        </ul>%26nbsp;\r\n                        </div></li>\r\n                    </ul>\r\n                    </div></li>\r\n                    <li class=\"list-unstyled\">\r\n                    <div class=\"treeview hover p-l-10\">\r\n                    <input id=\"test-SDE_Race_2\" type=\"checkbox\"/>\r\n                    <label for=\"test-SDE_Race_2\" class=\"list-header\"><strong> SDE Race</strong></label>\r\n                    <ul style=\"margin-right: 20%; opacity: 1;\" class=\"code\">\r\n                        <li class=\"list-unstyled\">\r\n                        <div>\r\n                        <ul style=\"padding-left: 0px;\">\r\n                        <li style=\"padding-left: 0px;\" class=\"list-unstyled\">\r\n                            <div>\r\n                            <pre class=\"cql-definition-body\">[&quot;Patient Characteristic Race&quot;: &quot;Race&quot;]</pre>\r\n                            </div></li>\r\n                        </ul>%26nbsp;\r\n                        </div></li>\r\n                    </ul>\r\n                    </div></li>\r\n                    <li class=\"list-unstyled\">\r\n                    <div class=\"treeview hover p-l-10\">\r\n                    <input id=\"test-SDE_Sex_690\" type=\"checkbox\"/>\r\n                    <label for=\"test-SDE_Sex_690\" class=\"list-header\"><strong> SDE Sex</strong></label>\r\n                    <ul style=\"margin-right: 20%; opacity: 1;\" class=\"code\">\r\n                        <li class=\"list-unstyled\">\r\n                        <div>\r\n                        <ul style=\"padding-left: 0px;\">\r\n                        <li style=\"padding-left: 0px;\" class=\"list-unstyled\">\r\n                            <div>\r\n                            <pre class=\"cql-definition-body\">[&quot;Patient Characteristic Sex&quot;: &quot;ONC Administrative Sex&quot;] </pre>\r\n                            </div></li>\r\n                        </ul>%26nbsp;\r\n                        </div></li>\r\n                    </ul>\r\n                    </div></li>\r\n                    </ul>\r\n                </div>\r\n                <h3><a name=\"d1e879\" href=\"#toc\">Risk Adjustment Variables</a></h3>\r\n                <div>\r\n                    <ul style=\"list-style:none;padding-left: 25px;\">\r\n                    <li>None</li>\r\n                    </ul>\r\n                </div>\r\n                <div style=\"float:left; background:teal; height:3px; width:80%\"/>\r\n                <table class=\"header_table\">\r\n                    <tbody>\r\n                    <tr>\r\n                    <td style=\"background-color:#656565; width:20%\"><span class=\"td_label\">Measure Set</span></td>\r\n                    <td colspan=\"3\" style=\"width:80%\">\r\n                    <div style=\"width:660px;overflow-x:hidden;overflow-y:auto\">\r\n                        <pre>eMeasure Stroke (eSTK)</pre>\r\n                    </div></td>\r\n                    </tr>\r\n                    </tbody>\r\n                </table></div>"
      },
      "extension": [ {
        "url": "http://hl7.org/fhir/us/cqfmeasures/StructureDefinition/cqfm-populationBasis",
        "valueCode": "Encounter"
      } ],
      "url": "http://hl7.org/fhir/us/cqfmeasures/Measure/measure-EXM105-FHIR3-8.0.000",
      "identifier": [ {
        "use": "official",
        "system": "http://hl7.org/fhir/cqi/ecqm/Measure/Identifier/cms",
        "value": "105"
      } ],
      "version": "8.0.000",
      "name": "EXM105",
      "title": "Discharged on Statin Medication",
      "status": "draft",
      "experimental": true,
      "publisher": "The Joint Commission",
      "description": "Ischemic stroke patients who are prescribed or continuing to take statin medication at hospital discharge",
      "purpose": "Ischemic stroke patients who are prescribed or continuing to take statin medication at hospital discharge",
      "approvalDate": "2016-01-01",
      "lastReviewDate": "2019-08-19",
      "effectivePeriod": {
        "start": "2019-01-01",
        "end": "2019-12-31"
      },
      "useContext": [ {
        "code": {
          "code": "program"
        },
        "valueCodeableConcept": {
          "text": "eligible-provider"
        }
      } ],
      "jurisdiction": [ {
        "coding": [ {
          "system": "urn:iso:std:iso:3166",
          "code": "US"
        } ]
      } ],
      "topic": [ {
        "coding": [ {
          "code": "57024-2"
        } ]
      } ],
      "contributor": [ {
        "type": "author",
        "name": "National Committee for Quality Assurance"
      } ],
      "contact": [ {
        "telecom": [ {
          "system": "url",
          "value": "http://www.ncqa.org/"
        } ]
      } ],
      "copyright": "Measure specifications are in the Public Domain. LOINC(R) is a registered trademark of the Regenstrief Institute. This material contains SNOMED Clinical Terms(R) (SNOMED CT(C)) copyright 2004-2017 International Health Terminology Standards Development Organization. All rights reserved.",
      "relatedArtifact": [ {
        "type": "depends-on",
        "resource": {
          "reference": "Library/library-FHIRHelpers-3.0.0"
        }
      }, {
        "type": "depends-on",
        "resource": {
          "reference": "Library/library-MATGlobalCommonFunctions-FHIR3-4.0.000"
        }
      }, {
        "type": "depends-on",
        "resource": {
          "reference": "Library/library-SupplementalDataElements-FHIR3-1.0.0"
        }
      }, {
        "type": "depends-on",
        "resource": {
          "reference": "Library/library-TJCOverall-FHIR3-3.6.000"
        }
      }, {
        "type": "depends-on",
        "url": "urn:hl7-org:elm-types:r1"
      }, {
        "type": "depends-on",
        "url": "http://hl7.org/fhir|3.0.0"
      }, {
        "type": "citation",
        "citation": "Amarenco, P., Bogousslavsky, J., Callahan, A., III, et al. (2006, August 10). High-dose atorvastatin after stroke or transient ischemic attack. New England Journal of Medicine, 355(6), 549-559. "
      }, {
        "type": "citation",
        "citation": "Biffi, A., Devan, W. J., Anderson, C. D., et al. (2011, May). Statin treatment and functional outcome after ischemic stroke: Case-control and meta-analysis. Stroke, 42(5), 1314-1319."
      }, {
        "type": "citation",
        "citation": "Centers for Disease Control and Prevention. (2009, May 1). Prevalence and most common causes of disability among adultsUnited States, 2005. Morbidity and Mortality Weekly Report, 58(16), 421-426."
      }, {
        "type": "citation",
        "citation": "Chan, P. S., Nallamothu, B. K., Gurm, H. S., et al. (2007, May 8). Incremental benefit and cost-effectiveness of high-dose statin therapy in high-risk patients with coronary artery disease. Circulation, 115(18), 2398-2409."
      }, {
        "type": "citation",
        "citation": "Culver, A. L., Ockene, I. S., Balasubramanian, R., et al. (2012, January 23). Statin use and risk of diabetes mellitus in postmenopausal women in the Women's Health Initiative. Archives of Internal Medicine, 172(2),  144-152."
      }, {
        "type": "citation",
        "citation": "Feher, A., Pusch, G., Koltai, K., et al. (2011, April 14). Statin therapy in the primary and the secondary prevention of ischaemic cerebrovascular diseases. International Journal of Cardiology, 148(2), 131-138."
      }, {
        "type": "citation",
        "citation": "Grundy, S. M., Cleeman, J. I., Merz, C. N., et al. (2004, July 13). Implications of recent clinical trials for the National Cholesterol Education Program Adult Treatment Panel III Guidelines. Circulation, 110(2), 227-239."
      }, {
        "type": "citation",
        "citation": "Kernan, W. N., Ovbiagele, B., Black, H. R., et al. (2014, May). Guidelines for the prevention of stroke in patients with stroke and transient ischemic attack: A guideline for health care professionals from the American Heart Association/American Stroke Association. Stroke, 45(7), 2160-2223. "
      }, {
        "type": "citation",
        "citation": "Kostis, W. J., Cheng, J. Q., Dobrzynski, J. M., et al. (2012, February 7). Meta-analysis of statin effects in women versus men. Journal of the American College of Cardiology, 59(6), 572-582."
      }, {
        "type": "citation",
        "citation": "Lazar, L. D., Pletcher, M. J., Coxson, P. G., et al. (2011, July 12). Cost-effectiveness of statin therapy for primary prevention in a low-cost statin era. Circulation, 124(2), 146-153."
      }, {
        "type": "citation",
        "citation": "Mitka, M. (2012, March 7). Some question use of statins to reduce cardiovascular risks in healthy women. JAMA, 307(9), 893-894."
      }, {
        "type": "citation",
        "citation": "National Cholesterol Education Program Expert Panel on Detection, Evaluation, and Adults Treatment of High Blood Cholesterol in Adults. (2002, December 17). Third report of the National Cholesterol Education Program (NCEP) Expert Panel on Detection, Evaluation, and Treatment of High Blood Cholesterol in Adults (Adult Treatment Panel III)Final report. Circulation, 106(25), 3143-3421. "
      }, {
        "type": "citation",
        "citation": "Powers, W. J., Rabinstein, A. A., Ackerson, T., et al. (2018, January). 2018 guidelines for the early management of patients with acute ischemic stroke: A guideline for health care professionals from the American Heart Association/American Stroke Association. Stroke, 49, e44-e47."
      }, {
        "type": "citation",
        "citation": "Rodriguez-Yanez, M., Agulla, J., Rodriguez-Gonzalez, R., et al. (2008, June). Statins and stroke. Therapeutic Advances in Cardiovascular Disease, 2(3), 157-166."
      }, {
        "type": "citation",
        "citation": "Roger, V. L., Go, A. S., Lloyd-Jones, D. M., et al. (2012, January 3). Heart disease and stroke statistics2012 update: A report from the American Heart Association. Circulation, 125(1), e2-e220."
      }, {
        "type": "citation",
        "citation": "Schellinger, P. D., Bryan, R. N., Caplan, L. R., et al. (2010, July 13). Evidence-based guideline: The role of diffusion and perfusion MRI for the diagnosis of acute ischemic stroke: Report of the Therapeutics and Technology Assessment Subcommittee of the American Academy of Neurology.  Neurology, 75(2), 177-185."
      }, {
        "type": "citation",
        "citation": "Squizzato, A., Romualdi, E., Dentali, F., et al. (2011). Statins for acute ischemic stroke. Cochrane Database of Systematic Reviews, 8, CD007551."
      }, {
        "type": "citation",
        "citation": "Stone, N. J., Robinson, J., Lichtenstein, A. H., et al. (2013, November). Guideline on the treatment of blood cholesterol to reduce atherosclerotic cardiovascular disease in adults: A report of the American College of Cardiology/American Heart Association Task Force on Practice Guidelines. Circulation, 11, 1-84."
      }, {
        "type": "citation",
        "citation": "Van Dis, F. J., Keilson, L. M., Rundell, C. A., et al. (1996, June). Direct measurement of serum low-density lipoprotein cholesterol in patients with acute myocardial infarction on admission to the emergency room. American Journal of Cardiology, 77(14), 1232-1234."
      }, {
        "type": "citation",
        "citation": "Weiss, R., Harder, M., & Rowe, J. (2003, May). The relationship between nonfasting and fasting lipid measurements in patients with or without type 2 diabetes mellitus receiving treatment with 3-hydroxy-3-methylglutaryl-coenzyme a reductase inhibitors. Clinical Therapeutics, 25(5), 1490-1497."
      } ],
      "library": [ {
        "reference": "Library/library-EXM105-FHIR3-8.0.000"
      } ],
      "disclaimer": "These performance measures are not clinical guidelines and do not establish a standard of medical care, and have not been tested for all potential applications. The measures and specifications are provided without warranty.",
      "scoring": {
        "coding": [ {
          "system": "http://hl7.org/fhir/measure-scoring",
          "code": "proportion"
        } ]
      },
      "type": [ {
        "coding": [ {
          "system": "http://hl7.org/fhir/measure-type",
          "code": "process"
        } ]
      } ],
      "rateAggregation": "none",
      "rationale": "There is an extensive and consistent body of evidence supporting the use of statins for secondary prevention in patients with clinically evident atherosclerotic cardiovascular disease (ASCVD), which includes individuals with ischemic stroke due to large artery atherosclerosis, individuals with ischemic stroke due to intrinsic small vessel disease, and individuals with ischemic stroke not directly due to atherosclerosis but with clinically evident atherosclerotic disease in an uninvolved cerebral or noncerebral bed.  Both women and men with clinical ASCVD are at increased risk for recurrent ASCVD and ASCVD death.  High-intensity statin therapy should be initiated or continued as first-line therapy in women and men less than or equal to 75 years of age who have clinical ASCVD, unless contraindicated. In patients with clinical ASCVD and a contraindication to high-intensity statin therapy, moderate-intensity therapy should be considered as an alternative if it can be tolerated.  In individuals greater than 75 years of age, the potential for ASCVD risk reduction benefits, adverse effects, drug-drug interactions, and patient preferences should be considered, and statin therapy individualized based on these considerations (Stone, 2013).",
      "clinicalRecommendationStatement": "For patients with stroke of atherosclerotic origin, intensive lipid lowering therapy with statins should be initiated",
      "improvementNotation": "increase",
      "guidance": "The \"Non-elective Inpatient Encounter\" value set intends to capture all non-scheduled hospitalizations. This value set is a subset of the \"Inpatient encounter\" value set, excluding concepts that specifically refer to elective hospital admissions. Non-elective admissions include emergency, urgent and unplanned admissions.\n\nThe \"Medication, Discharge\" datatype refers to the discharge medication list and is intended to express medications ordered for post-discharge use.",
      "group": [ {
        "identifier": {
          "value": "group-1"
        },
        "population": [ {
          "identifier": {
            "value": "initial-population"
          },
          "code": {
            "coding": [ {
              "code": "initial-population"
            } ]
          },
          "criteria": "Initial Population"
        }, {
          "identifier": {
            "value": "numerator"
          },
          "code": {
            "coding": [ {
              "code": "numerator"
            } ]
          },
          "criteria": "Numerator"
        }, {
          "identifier": {
            "value": "denominator"
          },
          "code": {
            "coding": [ {
              "code": "denominator"
            } ]
          },
          "criteria": "Denominator"
        }, {
          "identifier": {
            "value": "denominator-exclusion"
          },
          "code": {
            "coding": [ {
              "code": "denominator-exclusion"
            } ]
          },
          "criteria": "Denominator Exclusion"
        } ]
      } ],
      "supplementalData": [ {
        "identifier": {
          "value": "sde-ethnicity"
        },
        "usage": [ {
          "coding": [ {
            "code": "supplemental-data"
          } ]
        } ],
        "criteria": "SDE Ethnicity"
      }, {
        "identifier": {
          "value": "sde-payer"
        },
        "usage": [ {
          "coding": [ {
            "code": "supplemental-data"
          } ]
        } ],
        "criteria": "SDE Payer"
      }, {
        "identifier": {
          "value": "sde-race"
        },
        "usage": [ {
          "coding": [ {
            "code": "supplemental-data"
          } ]
        } ],
        "criteria": "SDE Race"
      }, {
        "identifier": {
          "value": "sde-sex"
        },
        "usage": [ {
          "coding": [ {
            "code": "supplemental-data"
          } ]
        } ],
        "criteria": "SDE Sex"
      } ]
    },
    "request": {
      "method": "PUT",
      "url": "Measure/measure-EXM105-FHIR3-8.0.000/_history/5"
    }
  }, {
    "resource": {
      "resourceType": "ValueSet",
      "id": "2.16.840.1.113883.3.117.1.7.1.215",
      "url": "http://cts.nlm.nih.gov/fhir/ValueSet/2.16.840.1.113883.3.117.1.7.1.215",
      "title": "LDL-c",
      "status": "active",
      "publisher": "The Joint Commission",
      "compose": {
        "include": [ {
          "system": "http://loinc.org",
          "version": "2.66",
          "concept": [ {
            "code": "13457-7",
            "display": "Cholesterol in LDL [Mass/volume] in Serum or Plasma by calculation"
          }, {
            "code": "18261-8",
            "display": "Cholesterol in LDL [Mass/volume] in Serum or Plasma ultracentrifugate"
          }, {
            "code": "18262-6",
            "display": "Cholesterol in LDL [Mass/volume] in Serum or Plasma by Direct assay"
          }, {
            "code": "2089-1",
            "display": "Cholesterol in LDL [Mass/volume] in Serum or Plasma"
          }, {
            "code": "43394-6",
            "display": "Cholesterol in LDL acylated [Mass/volume] in Serum or Plasma"
          }, {
            "code": "49132-4",
            "display": "Cholesterol in LDL [Mass/volume] in Serum or Plasma by Electrophoresis"
          }, {
            "code": "50193-2",
            "display": "Cholesterol in LDL.narrow density [Mass/volume] in Serum or Plasma"
          }, {
            "code": "55440-2",
            "display": "Cholesterol.in LDL (real) [Mass/volume] in Serum or Plasma by VAP"
          }, {
            "code": "86911-5",
            "display": "Cholesterol in LDL goal [Mass/volume] Serum or Plasma"
          }, {
            "code": "90364-1",
            "display": "Cholesterol.in LDL.small dense [Mass/volume] in Serum by Immunoassay"
          }, {
            "code": "91105-7",
            "display": "Cholesterol in LDL 1 [Mass/volume] in Serum or Plasma"
          }, {
            "code": "91106-5",
            "display": "Cholesterol in LDL 2 [Mass/volume] in Serum or Plasma"
          }, {
            "code": "91107-3",
            "display": "Cholesterol in LDL 3 [Mass/volume] in Serum or Plasma"
          }, {
            "code": "91108-1",
            "display": "Cholesterol in LDL 4 [Mass/volume] in Serum or Plasma"
          }, {
            "code": "91109-9",
            "display": "Cholesterol in LDL 5 [Mass/volume] in Serum or Plasma"
          }, {
            "code": "91110-7",
            "display": "Cholesterol in LDL 6 [Mass/volume] in Serum or Plasma"
          }, {
            "code": "91111-5",
            "display": "Cholesterol in LDL 7 [Mass/volume] in Serum or Plasma"
          } ]
        } ]
      }
    },
    "request": {
      "method": "PUT",
      "url": "ValueSet/2.16.840.1.113883.3.117.1.7.1.215"
    }
  }, {
    "resource": {
      "resourceType": "MeasureReport",
      "id": "measurereport-denom-EXM105-FHIR3",
      "contained": [ {
        "resourceType": "Bundle",
        "id": "ee557d53-01dd-40e3-8034-aae3a8e13a90",
        "type": "collection",
        "entry": [ {
          "fullUrl": "9ec57e92-92e1-4b47-a7c4-ff720de4d668",
          "resource": {
            "resourceType": "List",
            "id": "9ec57e92-92e1-4b47-a7c4-ff720de4d668",
            "title": "initial-population",
            "entry": [ {
              "item": {
                "reference": "denom-EXM105-FHIR3-1"
              }
            }, {
              "item": {
                "reference": "denom-EXM105-FHIR3-2"
              }
            }, {
              "item": {
                "reference": "denom-EXM105-FHIR3"
              }
            } ]
          }
        }, {
          "fullUrl": "Condition/denom-EXM105-FHIR3-1",
          "resource": {
            "resourceType": "Condition",
            "id": "denom-EXM105-FHIR3-1",
            "meta": {
              "profile": [ "http://hl7.org/fhir/us/core/StructureDefinition/us-core-condition" ]
            },
            "verificationStatus": "confirmed",
            "category": [ {
              "coding": [ {
                "system": "http://terminology.hl7.org/CodeSystem/condition-category",
                "code": "encounter-diagnosis",
                "display": "Encounter Diagnosis"
              } ]
            } ],
            "code": {
              "coding": [ {
                "system": "http://snomed.info/sct",
                "code": "116288000",
                "display": "Paralytic stroke (disorder)"
              } ]
            },
            "subject": {
              "reference": "Patient/denom-EXM105-FHIR3"
            }
          }
        }, {
          "fullUrl": "a65a6e37-12ac-4768-84f9-d944611be9f0",
          "resource": {
            "resourceType": "List",
            "id": "a65a6e37-12ac-4768-84f9-d944611be9f0",
            "title": "denominator",
            "entry": [ {
              "item": {
                "reference": "denom-EXM105-FHIR3-1"
              }
            } ]
          }
        }, {
          "fullUrl": "Encounter/denom-EXM105-FHIR3-2",
          "resource": {
            "resourceType": "Encounter",
            "id": "denom-EXM105-FHIR3-2",
            "meta": {
              "profile": [ "http://hl7.org/fhir/us/core/StructureDefinition/us-core-encounter" ]
            },
            "status": "finished",
            "class": {
              "system": "http://terminology.hl7.org/CodeSystem/v3-ActCode",
              "code": "IMP",
              "display": "inpatient encounter"
            },
            "type": [ {
              "coding": [ {
                "system": "http://snomed.info/sct",
                "code": "32485007",
                "display": "Hospital admission (procedure)"
              } ]
            } ],
            "subject": {
              "reference": "Patient/denom-EXM105-FHIR3"
            },
            "period": {
              "start": "2019-08-21T00:00:00-06:00",
              "end": "2019-12-19T08:15:00-07:00"
            },
            "diagnosis": [ {
              "condition": {
                "reference": "Condition/denom-EXM105-FHIR3-1"
              },
              "role": {
                "coding": [ {
                  "system": "http://hl7.org/fhir/diagnosis-role",
                  "code": "billing",
                  "display": "Billing"
                } ]
              },
              "rank": 1
            } ]
          }
        }, {
          "fullUrl": "Patient/denom-EXM105-FHIR3",
          "resource": {
            "resourceType": "Patient",
            "id": "denom-EXM105-FHIR3",
            "meta": {
              "profile": [ "http://hl7.org/fhir/us/core/StructureDefinition/us-core-patient" ]
            },
            "extension": [ {
              "url": "http://hl7.org/fhir/us/core/StructureDefinition/us-core-race",
              "extension": [ {
                "url": "ombCategory",
                "valueCoding": {
                  "system": "urn:oid:2.16.840.1.113883.6.238",
                  "code": "2054-5",
                  "display": "Black or African American"
                }
              } ]
            }, {
              "url": "http://hl7.org/fhir/us/core/StructureDefinition/us-core-ethnicity",
              "extension": [ {
                "url": "ombCategory",
                "valueCoding": {
                  "system": "urn:oid:2.16.840.1.113883.6.238",
                  "code": "2135-2",
                  "display": "Hispanic or Latino"
                }
              } ]
            } ],
            "identifier": [ {
              "use": "usual",
              "type": {
                "coding": [ {
                  "system": "http://terminology.hl7.org/CodeSystem/v2-0203",
                  "code": "MR",
                  "display": "Medical Record Number"
                } ]
              },
              "system": "http://hospital.smarthealthit.org",
              "value": "9999999910"
            } ],
            "name": [ {
              "family": "Jones",
              "given": [ "Rick" ]
            } ],
            "gender": "male",
            "birthDate": "1955-11-05"
          }
        } ]
      } ],
      "status": "complete",
      "type": "individual",
      "measure": {
        "reference": "Measure/measure-EXM105-FHIR3-8.0.000"
      },
      "patient": {
        "reference": "Patient/denom-EXM105-FHIR3"
      },
      "period": {
        "start": "2019-01-01T00:00:00-07:00",
        "end": "2019-12-31T00:00:00-07:00"
      },
      "group": [ {
        "identifier": {
          "value": "group-1"
        },
        "population": [ {
          "identifier": {
            "value": "initial-population"
          },
          "code": {
            "coding": [ {
              "code": "initial-population"
            } ]
          },
          "count": 1
        }, {
          "identifier": {
            "value": "numerator"
          },
          "code": {
            "coding": [ {
              "code": "numerator"
            } ]
          },
          "count": 0
        }, {
          "identifier": {
            "value": "denominator"
          },
          "code": {
            "coding": [ {
              "code": "denominator"
            } ]
          },
          "count": 1
        }, {
          "identifier": {
            "value": "denominator-exclusion"
          },
          "code": {
            "coding": [ {
              "code": "denominator-exclusion"
            } ]
          },
          "count": 0
        } ],
        "measureScore": 0.0
      } ],
      "evaluatedResources": {
        "reference": "#ee557d53-01dd-40e3-8034-aae3a8e13a90"
      }
    },
    "request": {
      "method": "PUT",
      "url": "MeasureReport/measurereport-denom-EXM105-FHIR3"
    }
  }, {
    "resource": {
      "resourceType": "MeasureReport",
      "id": "measurereport-denomex-EXM105-FHIR3",
      "contained": [ {
        "resourceType": "Bundle",
        "id": "18462d4f-6e68-45d0-a873-b507fc894223",
        "type": "collection",
        "entry": [ {
          "fullUrl": "81575980-8a5d-4762-9b5c-e65d5ea04c47",
          "resource": {
            "resourceType": "List",
            "id": "81575980-8a5d-4762-9b5c-e65d5ea04c47",
            "title": "initial-population",
            "entry": [ {
              "item": {
                "reference": "denomex-EXM105-FHIR3-2"
              }
            }, {
              "item": {
                "reference": "denomex-EXM105-FHIR3-1"
              }
            }, {
              "item": {
                "reference": "denomex-EXM105-FHIR3"
              }
            } ]
          }
        }, {
          "fullUrl": "8b8f1694-919a-4035-a715-cb268802be10",
          "resource": {
            "resourceType": "List",
            "id": "8b8f1694-919a-4035-a715-cb268802be10",
            "title": "denominator",
            "entry": [ {
              "item": {
                "reference": "denomex-EXM105-FHIR3-1"
              }
            } ]
          }
        }, {
          "fullUrl": "Encounter/denomex-EXM105-FHIR3-2",
          "resource": {
            "resourceType": "Encounter",
            "id": "denomex-EXM105-FHIR3-2",
            "meta": {
              "profile": [ "http://hl7.org/fhir/us/core/StructureDefinition/us-core-encounter" ]
            },
            "status": "finished",
            "class": {
              "system": "http://terminology.hl7.org/CodeSystem/v3-ActCode",
              "code": "IMP",
              "display": "inpatient encounter"
            },
            "type": [ {
              "coding": [ {
                "system": "http://snomed.info/sct",
                "code": "32485007",
                "display": "Hospital admission (procedure)"
              } ]
            } ],
            "subject": {
              "reference": "Patient/denomex-EXM105-FHIR3"
            },
            "period": {
              "start": "2019-08-21T00:00:00-06:00",
              "end": "2019-12-19T08:15:00-07:00"
            },
            "diagnosis": [ {
              "condition": {
                "reference": "Condition/denomex-EXM105-FHIR3-1"
              },
              "role": {
                "coding": [ {
                  "system": "http://hl7.org/fhir/diagnosis-role",
                  "code": "billing",
                  "display": "Billing"
                } ]
              },
              "rank": 1
            } ],
            "hospitalization": {
              "dischargeDisposition": {
                "coding": [ {
                  "system": "http://snomed.info/sct",
                  "code": "306701001",
                  "display": "Discharge to community hospital (procedure)"
                } ]
              }
            }
          }
        }, {
          "fullUrl": "Condition/denomex-EXM105-FHIR3-1",
          "resource": {
            "resourceType": "Condition",
            "id": "denomex-EXM105-FHIR3-1",
            "meta": {
              "profile": [ "http://hl7.org/fhir/us/core/StructureDefinition/us-core-condition" ]
            },
            "verificationStatus": "confirmed",
            "category": [ {
              "coding": [ {
                "system": "http://terminology.hl7.org/CodeSystem/condition-category",
                "code": "encounter-diagnosis",
                "display": "Encounter Diagnosis"
              } ]
            } ],
            "code": {
              "coding": [ {
                "system": "http://snomed.info/sct",
                "code": "116288000",
                "display": "Paralytic stroke (disorder)"
              } ]
            },
            "subject": {
              "reference": "Patient/denomex-EXM105-FHIR3"
            }
          }
        }, {
          "fullUrl": "Patient/denomex-EXM105-FHIR3",
          "resource": {
            "resourceType": "Patient",
            "id": "denomex-EXM105-FHIR3",
            "meta": {
              "profile": [ "http://hl7.org/fhir/us/core/StructureDefinition/us-core-patient" ]
            },
            "extension": [ {
              "url": "http://hl7.org/fhir/us/core/StructureDefinition/us-core-race",
              "extension": [ {
                "url": "ombCategory",
                "valueCoding": {
                  "system": "urn:oid:2.16.840.1.113883.6.238",
                  "code": "2106-3",
                  "display": "White"
                }
              } ]
            }, {
              "url": "http://hl7.org/fhir/us/core/StructureDefinition/us-core-ethnicity",
              "extension": [ {
                "url": "ombCategory",
                "valueCoding": {
                  "system": "urn:oid:2.16.840.1.113883.6.238",
                  "code": "2186-5",
                  "display": "Not Hispanic or Latino"
                }
              } ]
            } ],
            "identifier": [ {
              "use": "usual",
              "type": {
                "coding": [ {
                  "system": "http://terminology.hl7.org/CodeSystem/v2-0203",
                  "code": "MR",
                  "display": "Medical Record Number"
                } ]
              },
              "system": "http://hospital.smarthealthit.org",
              "value": "9999999911"
            } ],
            "name": [ {
              "family": "Jones",
              "given": [ "Louise" ]
            } ],
            "gender": "female",
            "birthDate": "1971-11-21"
          }
        } ]
      } ],
      "status": "complete",
      "type": "individual",
      "measure": {
        "reference": "Measure/measure-EXM105-FHIR3-8.0.000"
      },
      "patient": {
        "reference": "Patient/denomex-EXM105-FHIR3"
      },
      "period": {
        "start": "2019-01-01T00:00:00-07:00",
        "end": "2019-12-31T00:00:00-07:00"
      },
      "group": [ {
        "identifier": {
          "value": "group-1"
        },
        "population": [ {
          "identifier": {
            "value": "initial-population"
          },
          "code": {
            "coding": [ {
              "code": "initial-population"
            } ]
          },
          "count": 1
        }, {
          "identifier": {
            "value": "numerator"
          },
          "code": {
            "coding": [ {
              "code": "numerator"
            } ]
          },
          "count": 0
        }, {
          "identifier": {
            "value": "denominator"
          },
          "code": {
            "coding": [ {
              "code": "denominator"
            } ]
          },
          "count": 0
        }, {
          "identifier": {
            "value": "denominator-exclusion"
          },
          "code": {
            "coding": [ {
              "code": "denominator-exclusion"
            } ]
          },
          "count": 1
        } ]
      } ],
      "evaluatedResources": {
        "reference": "#18462d4f-6e68-45d0-a873-b507fc894223"
      }
    },
    "request": {
      "method": "PUT",
      "url": "MeasureReport/measurereport-denomex-EXM105-FHIR3"
    }
  }, {
    "resource": {
      "resourceType": "ValueSet",
      "id": "2.16.840.1.113883.3.117.1.7.1.87",
      "url": "http://cts.nlm.nih.gov/fhir/ValueSet/2.16.840.1.113883.3.117.1.7.1.87",
      "identifier": [ {
        "system": "urn:ietf:rfc:3986",
        "value": "2.16.840.1.113883.3.117.1.7.1.87"
      } ],
      "version": "20170725",
      "name": "DischargeToAcuteCareFacility",
      "title": "Discharge To Acute Care Facility",
      "status": "active",
      "publisher": "NLM",
      "compose": {
        "include": [ {
          "system": "http://snomed.info/sct",
          "version": "2018-03",
          "concept": [ {
            "code": "306701001",
            "display": "Discharge to community hospital (procedure)"
          }, {
            "code": "306703003",
            "display": "Discharge to tertiary referral hospital (procedure)"
          }, {
            "code": "434781000124105",
            "display": "Discharge to acute care hospital (procedure)"
          } ]
        } ]
      }
    },
    "request": {
      "method": "PUT",
      "url": "ValueSet/2.16.840.1.113883.3.117.1.7.1.87"
    }
  }, {
    "resource": {
      "resourceType": "ValueSet",
      "id": "2.16.840.1.113883.3.117.1.7.1.473",
      "url": "http://cts.nlm.nih.gov/fhir/ValueSet/2.16.840.1.113883.3.117.1.7.1.473",
      "title": "Medical Reason",
      "status": "active",
      "publisher": "The Joint Commission",
      "compose": {
        "include": [ {
          "system": "http://snomed.info/sct",
          "version": "2019-03",
          "concept": [ {
            "code": "183932001",
            "display": "Procedure contraindicated (situation)"
          }, {
            "code": "183964008",
            "display": "Treatment not indicated (situation)"
          }, {
            "code": "183966005",
            "display": "Drug treatment not indicated (situation)"
          }, {
            "code": "266721009",
            "display": "Absent response to treatment (situation)"
          }, {
            "code": "31438003",
            "display": "Drug resistance (disorder)"
          }, {
            "code": "35688006",
            "display": "Complication of medical care (disorder)"
          }, {
            "code": "397745006",
            "display": "Medical contraindication (finding)"
          }, {
            "code": "407563006",
            "display": "Treatment not tolerated (situation)"
          }, {
            "code": "410529002",
            "display": "Not needed (qualifier value)"
          }, {
            "code": "410534003",
            "display": "Not indicated (qualifier value)"
          }, {
            "code": "410536001",
            "display": "Contraindicated (qualifier value)"
          }, {
            "code": "416098002",
            "display": "Allergy to drug (finding)"
          }, {
            "code": "419511003",
            "display": "Propensity to adverse reactions to drug (finding)"
          }, {
            "code": "428024001",
            "display": "Clinical trial participant (person)"
          }, {
            "code": "428119001",
            "display": "Procedure not indicated (situation)"
          }, {
            "code": "59037007",
            "display": "Intolerance to drug (finding)"
          }, {
            "code": "62014003",
            "display": "Adverse reaction caused by drug (disorder)"
          }, {
            "code": "79899007",
            "display": "Drug interaction (finding)"
          } ]
        } ]
      }
    },
    "request": {
      "method": "PUT",
      "url": "ValueSet/2.16.840.1.113883.3.117.1.7.1.473"
    }
  }, {
    "resource": {
      "resourceType": "ValueSet",
      "id": "2.16.840.1.113883.3.117.1.7.1.212",
      "url": "http://cts.nlm.nih.gov/fhir/ValueSet/2.16.840.1.113883.3.117.1.7.1.212",
      "title": "Hemorrhagic Stroke",
      "status": "active",
      "publisher": "The Joint Commission",
      "compose": {
        "include": [ {
          "system": "http://snomed.info/sct",
          "version": "2019-03",
          "concept": [ {
            "code": "195155004",
            "display": "Subarachnoid hemorrhage from carotid siphon and bifurcation (disorder)"
          }, {
            "code": "195160000",
            "display": "Intracranial subarachnoid hemorrhage from vertebral artery (disorder)"
          }, {
            "code": "195165005",
            "display": "Basal ganglia hemorrhage (disorder)"
          }, {
            "code": "195167002",
            "display": "External capsule hemorrhage (disorder)"
          }, {
            "code": "195168007",
            "display": "Intracerebral hemorrhage with intraventricular hemorrhage (disorder)"
          }, {
            "code": "195169004",
            "display": "Intracerebral hemorrhage, multiple localized (disorder)"
          }, {
            "code": "20908003",
            "display": "Subcortical cerebral hemorrhage (disorder)"
          }, {
            "code": "230706003",
            "display": "Hemorrhagic cerebral infarction (disorder)"
          }, {
            "code": "230707007",
            "display": "Anterior cerebral circulation hemorrhagic infarction (disorder)"
          }, {
            "code": "230708002",
            "display": "Posterior cerebral circulation hemorrhagic infarction (disorder)"
          }, {
            "code": "230709005",
            "display": "Massive supratentorial cerebral hemorrhage (disorder)"
          }, {
            "code": "230710000",
            "display": "Lobar cerebral hemorrhage (disorder)"
          }, {
            "code": "230711001",
            "display": "Thalamic hemorrhage (disorder)"
          }, {
            "code": "230712008",
            "display": "Lacunar hemorrhage (disorder)"
          }, {
            "code": "23276006",
            "display": "Ventricular hemorrhage (disorder)"
          }, {
            "code": "270907008",
            "display": "Spontaneous intracranial subarachnoid hemorrhage (disorder)"
          }, {
            "code": "274100004",
            "display": "Cerebral hemorrhage (disorder)"
          }, {
            "code": "276277008",
            "display": "Subarachnoid hemorrhage from multiple aneurysms (disorder)"
          }, {
            "code": "276278003",
            "display": "Subarachnoid hemorrhage from anterior cerebral artery aneurysm (disorder)"
          }, {
            "code": "276280009",
            "display": "Subarachnoid hemorrhage from middle cerebral artery aneurysm (disorder)"
          }, {
            "code": "276281008",
            "display": "Subarachnoid hemorrhage from posterior cerebral artery aneurysm (disorder)"
          }, {
            "code": "276282001",
            "display": "Subarachnoid hemorrhage from anterior communicating artery aneurysm (disorder)"
          }, {
            "code": "276283006",
            "display": "Subarachnoid hemorrhage from posterior communicating artery aneurysm (disorder)"
          }, {
            "code": "276284000",
            "display": "Subarachnoid hemorrhage from basilar artery aneurysm (disorder)"
          }, {
            "code": "276285004",
            "display": "Subarachnoid hemorrhage from posterior inferior cerebellar artery aneurysm (disorder)"
          }, {
            "code": "276286003",
            "display": "Subarachnoid hemorrhage from carotid artery aneurysm (disorder)"
          }, {
            "code": "276722003",
            "display": "Intracerebellar and posterior fossa hemorrhage (disorder)"
          }, {
            "code": "28318001",
            "display": "Basilar hemorrhage (disorder)"
          }, {
            "code": "42429001",
            "display": "Cerebromeningeal hemorrhage (disorder)"
          }, {
            "code": "425957003",
            "display": "Non-traumatic intracerebral ventricular hemorrhage (disorder)"
          }, {
            "code": "449020009",
            "display": "Intraparenchymal hemorrhage of brain (disorder)"
          }, {
            "code": "49422009",
            "display": "Cortical hemorrhage (disorder)"
          }, {
            "code": "52201006",
            "display": "Internal capsule hemorrhage (disorder)"
          }, {
            "code": "73020009",
            "display": "Cerebral hemisphere hemorrhage (disorder)"
          }, {
            "code": "75038005",
            "display": "Cerebellar hemorrhage (disorder)"
          }, {
            "code": "7713009",
            "display": "Intrapontine hemorrhage (disorder)"
          }, {
            "code": "95454007",
            "display": "Brain stem hemorrhage (disorder)"
          } ]
        }, {
          "system": "http://hl7.org/fhir/sid/icd-10",
          "version": "2020",
          "concept": [ {
            "code": "I60.00",
            "display": "Nontraumatic subarachnoid hemorrhage from unspecified carotid siphon and bifurcation"
          }, {
            "code": "I60.01",
            "display": "Nontraumatic subarachnoid hemorrhage from right carotid siphon and bifurcation"
          }, {
            "code": "I60.02",
            "display": "Nontraumatic subarachnoid hemorrhage from left carotid siphon and bifurcation"
          }, {
            "code": "I60.10",
            "display": "Nontraumatic subarachnoid hemorrhage from unspecified middle cerebral artery"
          }, {
            "code": "I60.11",
            "display": "Nontraumatic subarachnoid hemorrhage from right middle cerebral artery"
          }, {
            "code": "I60.12",
            "display": "Nontraumatic subarachnoid hemorrhage from left middle cerebral artery"
          }, {
            "code": "I60.2",
            "display": "Nontraumatic subarachnoid hemorrhage from anterior communicating artery"
          }, {
            "code": "I60.30",
            "display": "Nontraumatic subarachnoid hemorrhage from unspecified posterior communicating artery"
          }, {
            "code": "I60.31",
            "display": "Nontraumatic subarachnoid hemorrhage from right posterior communicating artery"
          }, {
            "code": "I60.32",
            "display": "Nontraumatic subarachnoid hemorrhage from left posterior communicating artery"
          }, {
            "code": "I60.4",
            "display": "Nontraumatic subarachnoid hemorrhage from basilar artery"
          }, {
            "code": "I60.50",
            "display": "Nontraumatic subarachnoid hemorrhage from unspecified vertebral artery"
          }, {
            "code": "I60.51",
            "display": "Nontraumatic subarachnoid hemorrhage from right vertebral artery"
          }, {
            "code": "I60.52",
            "display": "Nontraumatic subarachnoid hemorrhage from left vertebral artery"
          }, {
            "code": "I60.6",
            "display": "Nontraumatic subarachnoid hemorrhage from other intracranial arteries"
          }, {
            "code": "I60.7",
            "display": "Nontraumatic subarachnoid hemorrhage from unspecified intracranial artery"
          }, {
            "code": "I60.8",
            "display": "Other nontraumatic subarachnoid hemorrhage"
          }, {
            "code": "I60.9",
            "display": "Nontraumatic subarachnoid hemorrhage, unspecified"
          }, {
            "code": "I61.0",
            "display": "Nontraumatic intracerebral hemorrhage in hemisphere, subcortical"
          }, {
            "code": "I61.1",
            "display": "Nontraumatic intracerebral hemorrhage in hemisphere, cortical"
          }, {
            "code": "I61.2",
            "display": "Nontraumatic intracerebral hemorrhage in hemisphere, unspecified"
          }, {
            "code": "I61.3",
            "display": "Nontraumatic intracerebral hemorrhage in brain stem"
          }, {
            "code": "I61.4",
            "display": "Nontraumatic intracerebral hemorrhage in cerebellum"
          }, {
            "code": "I61.5",
            "display": "Nontraumatic intracerebral hemorrhage, intraventricular"
          }, {
            "code": "I61.6",
            "display": "Nontraumatic intracerebral hemorrhage, multiple localized"
          }, {
            "code": "I61.8",
            "display": "Other nontraumatic intracerebral hemorrhage"
          }, {
            "code": "I61.9",
            "display": "Nontraumatic intracerebral hemorrhage, unspecified"
          } ]
        } ]
      }
    },
    "request": {
      "method": "PUT",
      "url": "ValueSet/2.16.840.1.113883.3.117.1.7.1.212"
    }
  } ]
}