{
  "resourceType": "Bundle",
  "id": "tests-denomexcl-EXM153-bundle",
  "type": "transaction",
  "entry": [ {
    "resource": {
      "resourceType": "Encounter",
      "id": "denomexcl-EXM153-Encounter",
      "meta": {
        "profile": [ "http://hl7.org/fhir/us/core/StructureDefinition/us-core-encounter" ]
      },
      "status": "finished",
      "class": {
        "system": "http://terminology.hl7.org/CodeSystem/v3-ActCode",
        "code": "IMP",
        "display": "inpatient encounter"
      },
      "type": [ {
        "coding": [ {
          "system": "http://www.ama-assn.org/go/cpt",
          "code": "99385",
          "display": "Initial comprehensive preventive medicine evaluation and management of an individual including an age and gender appropriate history, examination, counseling/anticipatory guidance/risk factor reduction interventions, and the ordering of laboratory/diagnostic procedures, new patient; 18-39 years"
        } ]
      } ],
      "subject": {
        "reference": "Patient/denomexcl-EXM153"
      },
      "period": {
        "start": "2019-08-21T08:00:00-07:00",
        "end": "2019-08-21T08:15:00-07:00"
      }
    },
    "request": {
      "method": "PUT",
      "url": "Encounter/denomexcl-EXM153-Encounter"
    }
  }, {
    "resource": {
      "resourceType": "Patient",
      "id": "denomexcl-EXM153",
      "meta": {
        "profile": [ "http://hl7.org/fhir/us/core/StructureDefinition/us-core-patient" ]
      },
      "extension": [ {
        "url": "http://hl7.org/fhir/us/core/StructureDefinition/us-core-race",
        "extension": [ {
          "url": "ombCategory",
          "valueCoding": {
            "system": "urn:oid:2.16.840.1.113883.6.238",
            "code": "2106-3",
            "display": "White"
          }
        } ]
      }, {
        "url": "http://hl7.org/fhir/us/core/StructureDefinition/us-core-ethnicity",
        "extension": [ {
          "url": "ombCategory",
          "valueCoding": {
            "system": "urn:oid:2.16.840.1.113883.6.238",
            "code": "2186-5",
            "display": "Not Hispanic or Latino"
          }
        } ]
      } ],
      "identifier": [ {
        "use": "usual",
        "type": {
          "coding": [ {
            "system": "http://terminology.hl7.org/CodeSystem/v2-0203",
            "code": "MR",
            "display": "Medical Record Number"
          } ]
        },
        "system": "http://hospital.smarthealthit.org",
        "value": "9999999911"
      } ],
      "name": [ {
        "family": "Jones",
        "given": [ "Louise" ]
      } ],
      "gender": "female",
      "birthDate": "2002-01-21"
    },
    "request": {
      "method": "PUT",
      "url": "Patient/denomexcl-EXM153"
    }
  }, {
    "resource": {
      "resourceType": "ServiceRequest",
      "id": "denomexcl-EXM153-ServiceRequest-Pregnancy",
      "status": "active",
      "intent": "order",
      "code": {
        "coding": [ {
          "system": "http://loinc.org",
          "code": "19080-1",
          "display": "Choriogonadotropin [Units/volume] in Serum or Plasma"
        } ]
      },
      "subject": {
        "reference": "Patient/denomexcl-EXM153"
      },
      "encounter": {
        "reference": "Encounter/denomexcl-EXM153-Encounter"
      },
      "authoredOn": "2019-08-21T00:00:00-06:00"
    },
    "request": {
      "method": "PUT",
      "url": "ServiceRequest/denomexcl-EXM153-ServiceRequest-Pregnancy"
    }
  }, {
    "resource": {
      "resourceType": "ServiceRequest",
      "id": "denomexcl-EXM153-ServiceRequest-XRay",
      "status": "active",
      "intent": "order",
      "code": {
        "coding": [ {
          "system": "http://loinc.org",
          "code": "24532-4",
          "display": "US Abdomen RUQ"
        } ]
      },
      "subject": {
        "reference": "Patient/denomexcl-EXM153"
      },
      "encounter": {
        "reference": "Encounter/denomexcl-EXM153-Encounter"
      },
      "authoredOn": "2019-08-24T00:00:00-06:00"
    },
    "request": {
      "method": "PUT",
      "url": "ServiceRequest/denomexcl-EXM153-ServiceRequest-XRay"
    }
  } ]
}