{
  "resourceType": "Bundle",
  "id": "tests-denomexcl-EXM104-bundle",
  "type": "transaction",
  "entry": [ {
    "resource": {
      "resourceType": "Encounter",
      "id": "denomexcl-EXM104-2",
      "meta": {
        "profile": [ "http://hl7.org/fhir/us/core/StructureDefinition/us-core-encounter" ]
      },
      "status": "finished",
      "class": {
        "system": "http://terminology.hl7.org/CodeSystem/v3-ActCode",
        "code": "IMP",
        "display": "inpatient encounter"
      },
      "type": [ {
        "coding": [ {
          "system": "http://snomed.info/sct",
          "code": "32485007",
          "display": "Hospital admission (procedure)"
        } ]
      } ],
      "subject": {
        "reference": "Patient/denomexcl-EXM104"
      },
      "period": {
        "start": "2019-08-21T00:00:00-06:00",
        "end": "2019-12-19T08:15:00-07:00"
      },
      "diagnosis": [ {
        "condition": {
          "reference": "Condition/denomexcl-EXM104-1"
        },
        "use": {
          "coding": [ {
            "system": "http://hl7.org/fhir/diagnosis-role",
            "code": "billing",
            "display": "Billing"
          } ]
        },
        "rank": 1
      } ]
    },
    "request": {
      "method": "PUT",
      "url": "Encounter/denomexcl-EXM104-2"
    }
  }, {
    "resource": {
      "resourceType": "Condition",
      "id": "denomexcl-EXM104-1",
      "meta": {
        "profile": [ "http://hl7.org/fhir/us/core/StructureDefinition/us-core-condition" ]
      },
      "verificationStatus": {
        "coding": [ {
          "system": "http://terminology.hl7.org/CodeSystem/condition-ver-status",
          "code": "confirmed",
          "display": "Confirmed"
        } ]
      },
      "category": [ {
        "coding": [ {
          "system": "http://terminology.hl7.org/CodeSystem/condition-category",
          "code": "encounter-diagnosis",
          "display": "Encounter Diagnosis"
        } ]
      } ],
      "code": {
        "coding": [ {
          "system": "http://snomed.info/sct",
          "code": "116288000",
          "display": "Paralytic stroke (disorder)"
        } ]
      },
      "subject": {
        "reference": "Patient/denomexcl-EXM104"
      }
    },
    "request": {
      "method": "PUT",
      "url": "Condition/denomexcl-EXM104-1"
    }
  }, {
    "resource": {
      "resourceType": "Patient",
      "id": "denomexcl-EXM104",
      "meta": {
        "profile": [ "http://hl7.org/fhir/us/core/StructureDefinition/us-core-patient" ]
      },
      "extension": [ {
        "url": "http://hl7.org/fhir/us/core/StructureDefinition/us-core-race",
        "extension": [ {
          "url": "ombCategory",
          "valueCoding": {
            "system": "urn:oid:2.16.840.1.113883.6.238",
            "code": "2054-5",
            "display": "Black or African American"
          }
        } ]
      }, {
        "url": "http://hl7.org/fhir/us/core/StructureDefinition/us-core-ethnicity",
        "extension": [ {
          "url": "ombCategory",
          "valueCoding": {
            "system": "urn:oid:2.16.840.1.113883.6.238",
            "code": "2135-2",
            "display": "Hispanic or Latino"
          }
        } ]
      } ],
      "identifier": [ {
        "use": "usual",
        "type": {
          "coding": [ {
            "system": "http://terminology.hl7.org/CodeSystem/v2-0203",
            "code": "MR",
            "display": "Medical Record Number"
          } ]
        },
        "system": "http://hospital.smarthealthit.org",
        "value": "9999999910"
      } ],
      "name": [ {
        "family": "Jones",
        "given": [ "Rick" ]
      } ],
      "gender": "male",
      "birthDate": "1955-11-05"
    },
    "request": {
      "method": "PUT",
      "url": "Patient/denomexcl-EXM104"
    }
  }, {
    "resource": {
      "resourceType": "ServiceRequest",
      "id": "denomexcl-EXM104-1",
      "status": "active",
      "intent": "order",
      "code": {
        "coding": [ {
          "system": "http://snomed.info/sct",
          "code": "133918004",
          "display": "Comfort measures (regime/therapy)"
        } ]
      },
      "subject": {
        "reference": "Patient/denomexcl-EXM104"
      },
      "encounter": {
        "reference": "Encounter/denomexcl-EXM104-2"
      },
      "authoredOn": "2019-08-21T00:00:00-06:00"
    },
    "request": {
      "method": "PUT",
      "url": "ServiceRequest/denomexcl-EXM104-1"
    }
  } ]
}