{
  "resourceType": "Bundle",
  "id": "Vickie-Terry-Valdez-2662-Encounter-879",
  "type": "transaction",
  "entry": [
    {
      "fullUrl": "http://localhost:8080/cqf-ruler/baseDstu3/Encounter/Encounter-879",
      "resource": {
        "resourceType": "Encounter",
        "id": "Encounter-879",
        "meta": {
          "profile": [
            "http://hl7.org/fhir/us/hedis/StructureDefinition/hedis-encounter"
          ]
        },
        "extension": [
          {
            "url": "http://mihin.org/extension/copyright",
            "valueString": "Copyright 2014-2019 Michigan Health Information Network Shared Services. Licensed under the Apache License, Version 2.0 (the 'License'); you may not use this file except in compliance with the License. You may obtain a copy of the License at  http://www.apache.org/licenses/LICENSE-2.0.  Unless required by applicable law or agreed to in writing, software distributed under the License is distributed on an 'AS IS' BASIS, WITHOUT WARRANTIES OR CONDITIONS OF ANY KIND, either express or implied. See the License for the specific language governing permissions and limitations under the License."
          }
        ],
        "status": "finished",
        "class": {
          "system": "http://hl7.org/fhir/encounter-class",
          "code": "ambulatory",
          "display": "ambulatory"
        },
        "type": [
          {
            "coding": [
              {
                "system": "http://snomed.info/sct",
                "code": "185460008",
                "display": "Combined Office Visits"
              }
            ]
          }
        ],
        "subject": {
          "reference": "Patient/Patient-2662",
          "display": "Vickie Terry Valdez"
        },
        "participant": [
          {
            "period": {
              "start": "2019-03-04T00:00:00-05:00",
              "end": "2019-03-04T00:00:00-05:00"
            },
            "individual": {
              "reference": "Practitioner/Practitioner-2220",
              "display": "Kristina Ibarra Hale MD"
            }
          }
        ],
        "period": {
          "start": "2019-03-04T00:00:00-05:00",
          "end": "2019-03-04T00:00:00-05:00"
        },
        "location": [
          {
            "location": {
              "reference": "Location/Location-111",
              "display": "Windward General Hospital"
            }
          }
        ],
        "serviceProvider": {
          "reference": "Organization/Organization-1004",
          "display": "Windward General Hospital"
        }
      },
      "request": {
        "method": "PUT",
        "url": "http://localhost:8080/cqf-ruler/baseDstu3/Encounter/Encounter-879"
      }
    },
    {
      "fullUrl": "http://localhost:8080/cqf-ruler/baseDstu3/Procedure/Procedure-106945",
      "resource": {
        "resourceType": "Procedure",
        "id": "Procedure-106945",
        "meta": {
          "profile": [
            "http://hl7.org/fhir/us/hedis/StructureDefinition/hedis-procedure"
          ]
        },
        "extension": [
          {
            "url": "http://mihin.org/extension/copyright",
            "valueString": "Copyright 2014-2019 Michigan Health Information Network Shared Services. Licensed under the Apache License, Version 2.0 (the 'License'); you may not use this file except in compliance with the License. You may obtain a copy of the License at  http://www.apache.org/licenses/LICENSE-2.0.  Unless required by applicable law or agreed to in writing, software distributed under the License is distributed on an 'AS IS' BASIS, WITHOUT WARRANTIES OR CONDITIONS OF ANY KIND, either express or implied. See the License for the specific language governing permissions and limitations under the License."
          }
        ],
        "identifier": [
          {
            "use": "official",
            "system": "mihin.org/fhir/sid/elementId",
            "value": "6c752c1b-2f88-4e73-a596-3081cb401b85"
          }
        ],
        "status": "completed",
        "code": {
          "coding": [
            {
              "system": "http://www.ama-assn.org/go/cpt",
              "code": "77061"
            }
          ]
        },
        "subject": {
          "reference": "Patient/Patient-2662",
          "display": "Vickie Terry Valdez"
        },
        "context": {
          "reference": "Encounter/Encounter-879",
          "display": "Ambulatory_Encounter"
        },
        "performedPeriod": {
          "start": "2019-03-04T00:00:00-05:00",
          "end": "2019-03-04T00:00:00-05:00"
        },
        "performer": [
          {
            "actor": {
              "reference": "Practitioner/Practitioner-2220",
              "display": "Kristina Ibarra Hale MD"
            }
          }
        ],
        "location": {
          "reference": "Location/Location-111",
          "display": "Windward General Hospital"
        }
      },
      "request": {
        "method": "PUT",
        "url": "http://localhost:8080/cqf-ruler/baseDstu3/Procedure/Procedure-106945"
      }
    },
    {
      "fullUrl": "http://localhost:8080/cqf-ruler/baseDstu3/Observation/Observation-106946",
      "resource": {
        "resourceType": "Observation",
        "id": "Observation-106946",
        "meta": {
          "profile": [
            "http://hl7.org/fhir/us/hedis/StructureDefinition/hedis-observation"
          ]
        },
        "extension": [
          {
            "url": "http://mihin.org/extension/copyright",
            "valueString": "Copyright 2014-2019 Michigan Health Information Network Shared Services. Licensed under the Apache License, Version 2.0 (the 'License'); you may not use this file except in compliance with the License. You may obtain a copy of the License at  http://www.apache.org/licenses/LICENSE-2.0.  Unless required by applicable law or agreed to in writing, software distributed under the License is distributed on an 'AS IS' BASIS, WITHOUT WARRANTIES OR CONDITIONS OF ANY KIND, either express or implied. See the License for the specific language governing permissions and limitations under the License."
          }
        ],
        "identifier": [
          {
            "use": "official",
            "system": "mihin.org/fhir/sid/elementId",
            "value": "78a52fd1-4b03-4690-80e3-56e50880350f"
          }
        ],
        "status": "final",
        "category": [
          {
            "coding": [
              {
                "system": "http://hl7.org/fhir/observation-category",
                "code": "exam",
                "display": "Exam"
              }
            ]
          }
        ],
        "code": {
          "coding": [
            {
              "system": "http://snomed.info/sct",
              "code": "168749009",
              "display": "Mammography normal (finding)"
            }
          ]
        },
        "subject": {
          "reference": "Patient/Patient-2662",
          "display": "Vickie Terry Valdez"
        },
        "context": {
          "reference": "Encounter/Encounter-879",
          "display": "Ambulatory_Encounter"
        },
        "effectiveDateTime": "2019-03-04T00:00:00-05:00",
        "performer": [
          {
            "reference": "Practitioner/Practitioner-2220",
            "display": "Kristina Ibarra Hale MD"
          }
        ],
        "valueString": "NEGATIVE"
      },
      "request": {
        "method": "PUT",
        "url": "http://localhost:8080/cqf-ruler/baseDstu3/Observation/Observation-106946"
      }
    },
    {
      "fullUrl": "http://localhost:8080/cqf-ruler/baseDstu3/Observation/Observation-106947",
      "resource": {
        "resourceType": "Observation",
        "id": "Observation-106947",
        "meta": {
          "profile": [
            "http://hl7.org/fhir/us/hedis/StructureDefinition/hedis-observation"
          ]
        },
        "extension": [
          {
            "url": "http://mihin.org/extension/copyright",
            "valueString": "Copyright 2014-2019 Michigan Health Information Network Shared Services. Licensed under the Apache License, Version 2.0 (the 'License'); you may not use this file except in compliance with the License. You may obtain a copy of the License at  http://www.apache.org/licenses/LICENSE-2.0.  Unless required by applicable law or agreed to in writing, software distributed under the License is distributed on an 'AS IS' BASIS, WITHOUT WARRANTIES OR CONDITIONS OF ANY KIND, either express or implied. See the License for the specific language governing permissions and limitations under the License."
          }
        ],
        "identifier": [
          {
            "use": "official",
            "system": "mihin.org/fhir/sid/elementId",
            "value": "19f2e87f-1705-4c08-b5e3-dffc193bdaf6"
          }
        ],
        "status": "final",
        "category": [
          {
            "coding": [
              {
                "system": "http://hl7.org/fhir/observation-category",
                "code": "exam",
                "display": "Exam"
              }
            ]
          }
        ],
        "code": {
          "coding": [
            {
              "system": "http://snomed.info/sct",
              "code": "397145000",
              "display": "Mammography assessment (Category 5) - Highly suggestive of malignancy"
            }
          ]
        },
        "subject": {
          "reference": "Patient/Patient-2662",
          "display": "Vickie Terry Valdez"
        },
        "context": {
          "reference": "Encounter/Encounter-879",
          "display": "Ambulatory_Encounter"
        },
        "effectiveDateTime": "2019-03-04T00:00:00-05:00",
        "performer": [
          {
            "reference": "Practitioner/Practitioner-2220",
            "display": "Kristina Ibarra Hale MD"
          }
        ],
        "valueString": "POSITIVE"
      },
      "request": {
        "method": "PUT",
        "url": "http://localhost:8080/cqf-ruler/baseDstu3/Observation/Observation-106947"
      }
    },
    {
      "fullUrl": "http://localhost:8080/cqf-ruler/baseDstu3/DiagnosticReport/DiagnosticReport-106948",
      "resource": {
        "resourceType": "DiagnosticReport",
        "id": "DiagnosticReport-106948",
        "meta": {
          "profile": [
            "http://hl7.org/fhir/us/hedis/StructureDefinition/hedis-diagnosticreport"
          ]
        },
        "extension": [
          {
            "url": "http://mihin.org/extension/copyright",
            "valueString": "Copyright 2014-2019 Michigan Health Information Network Shared Services. Licensed under the Apache License, Version 2.0 (the 'License'); you may not use this file except in compliance with the License. You may obtain a copy of the License at  http://www.apache.org/licenses/LICENSE-2.0.  Unless required by applicable law or agreed to in writing, software distributed under the License is distributed on an 'AS IS' BASIS, WITHOUT WARRANTIES OR CONDITIONS OF ANY KIND, either express or implied. See the License for the specific language governing permissions and limitations under the License."
          }
        ],
        "identifier": [
          {
            "use": "official",
            "system": "mihin.org/fhir/sid/elementId",
            "value": "ee24be30-bbdc-4704-ac51-df3e6e1767cf"
          }
        ],
        "status": "final",
        "code": {
          "coding": [
            {
              "system": "http://loinc.org",
              "code": "37005-6",
              "display": "Breast - left Mammogram magnification"
            }
          ]
        },
        "subject": {
          "reference": "Patient/Patient-2662",
          "display": "Vickie Terry Valdez"
        },
        "context": {
          "reference": "Encounter/Encounter-879",
          "display": "Ambulatory_Encounter"
        },
        "effectivePeriod": {
          "start": "2019-03-04T00:00:00-05:00",
          "end": "2019-03-04T00:00:00-05:00"
        },
        "issued": "2019-03-04T00:00:00.000-05:00",
        "performer": [
          {
            "actor": {
              "reference": "Practitioner/Practitioner-2220",
              "display": "Kristina Ibarra Hale MD"
            }
          }
        ],
        "result": [
          {
            "reference": "Observation/Observation-106947",
            "display": "Breast_Cancer_Report_Observation_1"
          }
        ]
      },
      "request": {
        "method": "PUT",
        "url": "http://localhost:8080/cqf-ruler/baseDstu3/DiagnosticReport/DiagnosticReport-106948"
      }
    }
  ]
}