{
  "resourceType": "Bundle",
  "id": "Nicholas-Clinton-Hill-Jr-505-Encounter-4265",
  "type": "transaction",
  "entry": [
    {
      "fullUrl": "http://localhost:8080/cqf-ruler/baseDstu3/Encounter/Encounter-4265",
      "resource": {
        "resourceType": "Encounter",
        "id": "Encounter-4265",
        "meta": {
          "profile": [
            "http://hl7.org/fhir/us/hedis/StructureDefinition/hedis-encounter"
          ]
        },
        "extension": [
          {
            "url": "http://mihin.org/extension/copyright",
            "valueString": "Copyright 2014-2018 Michigan Health Information Network Shared Services. Licensed under the Apache License, Version 2.0 (the 'License'); you may not use this file except in compliance with the License. You may obtain a copy of the License at  http://www.apache.org/licenses/LICENSE-2.0.  Unless required by applicable law or agreed to in writing, software distributed under the License is distributed on an 'AS IS' BASIS, WITHOUT WARRANTIES OR CONDITIONS OF ANY KIND, either express or implied. See the License for the specific language governing permissions and limitations under the License."
          }
        ],
        "status": "finished",
        "class": {
          "system": "http://hl7.org/fhir/encounter-class",
          "code": "ambulatory",
          "display": "ambulatory"
        },
        "type": [
          {
            "coding": [
              {
                "system": "http://snomed.info/sct",
                "code": "428191000124101",
                "display": "Documentation of current medications"
              }
            ]
          }
        ],
        "subject": {
          "reference": "Patient/Patient-505",
          "display": "Nicholas Clinton Hill Jr"
        },
        "participant": [
          {
            "period": {
              "start": "2019-04-17T00:00:00-04:00",
              "end": "2019-04-17T00:00:00-04:00"
            },
            "individual": {
              "reference": "Practitioner/Practitioner-51",
              "display": "Derek Henry Maynard MD"
            }
          }
        ],
        "period": {
          "start": "2019-04-17T00:00:00-04:00",
          "end": "2019-04-17T00:00:00-04:00"
        },
        "location": [
          {
            "location": {
              "reference": "Location/Location-181",
              "display": "Mother Charity Hospital"
            }
          }
        ],
        "serviceProvider": {
          "reference": "Organization/Organization-1015",
          "display": "Mother Charity Hospital"
        }
      },
      "request": {
        "method": "PUT",
        "url": "http://localhost:8080/cqf-ruler/baseDstu3/Encounter/Encounter-4265"
      }
    },
    {
      "fullUrl": "http://localhost:8080/cqf-ruler/baseDstu3/Task/Task-123702",
      "resource": {
        "resourceType": "Task",
        "id": "Task-123702",
        "extension": [
          {
            "url": "http://mihin.org/extension/copyright",
            "valueString": "Copyright 2014-2018 Michigan Health Information Network Shared Services. Licensed under the Apache License, Version 2.0 (the 'License'); you may not use this file except in compliance with the License. You may obtain a copy of the License at  http://www.apache.org/licenses/LICENSE-2.0.  Unless required by applicable law or agreed to in writing, software distributed under the License is distributed on an 'AS IS' BASIS, WITHOUT WARRANTIES OR CONDITIONS OF ANY KIND, either express or implied. See the License for the specific language governing permissions and limitations under the License."
          }
        ],
        "status": "accepted",
        "intent": "original-order",
        "code": {
          "coding": [
            {
              "system": "SNOMED-CT",
              "code": "430193006",
              "display": "Medication Reconciliation (procedure)"
            }
          ]
        },
        "description": "Care_Plan_Start Task 1",
        "for": {
          "reference": "Patient/Patient-505",
          "display": "Nicholas Clinton Hill Jr"
        },
        "context": {
          "reference": "Encounter/Encounter-4265",
          "display": "Ambulatory_Encounter"
        },
        "executionPeriod": {
          "start": "2019-04-17T00:00:00-04:00",
          "end": "2019-04-17T00:00:00-04:00"
        },
        "authoredOn": "2019-04-17T00:00:00-04:00",
        "requester": {
          "agent": {
            "reference": "Practitioner/Practitioner-51",
            "display": "Derek Henry Maynard MD"
          },
          "onBehalfOf": {
            "reference": "Organization/Organization-1015",
            "display": "Mother Charity Hospital"
          }
        }
      },
      "request": {
        "method": "PUT",
        "url": "http://localhost:8080/cqf-ruler/baseDstu3/Task/Task-123702"
      }
    },
    {
      "fullUrl": "http://localhost:8080/cqf-ruler/baseDstu3/CarePlan/CarePlan-123701",
      "resource": {
        "resourceType": "CarePlan",
        "id": "CarePlan-123701",
        "extension": [
          {
            "url": "http://mihin.org/extension/copyright",
            "valueString": "Copyright 2014-2018 Michigan Health Information Network Shared Services. Licensed under the Apache License, Version 2.0 (the 'License'); you may not use this file except in compliance with the License. You may obtain a copy of the License at  http://www.apache.org/licenses/LICENSE-2.0.  Unless required by applicable law or agreed to in writing, software distributed under the License is distributed on an 'AS IS' BASIS, WITHOUT WARRANTIES OR CONDITIONS OF ANY KIND, either express or implied. See the License for the specific language governing permissions and limitations under the License."
          }
        ],
        "identifier": [
          {
            "use": "official",
            "system": "mihin.org/fhir/sid/elementId",
            "value": "126ffa89-5403-4dea-a920-09ccbfd3e508"
          }
        ],
        "status": "active",
        "category": [
          {
            "coding": [
              {
                "system": "http://snomed.info/sct",
                "code": "430193006",
                "display": "Medication Reconciliation (procedure)"
              }
            ]
          }
        ],
        "subject": {
          "reference": "Patient/Patient-505",
          "display": "Nicholas Clinton Hill Jr"
        },
        "context": {
          "reference": "Encounter/Encounter-4265",
          "display": "Ambulatory_Encounter"
        },
        "period": {
          "start": "2019-04-17T00:00:00-04:00",
          "end": "2019-04-17T00:00:00-04:00"
        },
        "author": [
          {
            "reference": "Practitioner/Practitioner-51",
            "display": "Derek Henry Maynard MD"
          }
        ],
        "activity": [
          {
            "reference": {
              "reference": "Task/Task-123702",
              "display": "Care_Plan_Start Task 1"
            }
          }
        ]
      },
      "request": {
        "method": "PUT",
        "url": "http://localhost:8080/cqf-ruler/baseDstu3/CarePlan/CarePlan-123701"
      }
    },
    {
      "fullUrl": "http://localhost:8080/cqf-ruler/baseDstu3/Procedure/Procedure-123703",
      "resource": {
        "resourceType": "Procedure",
        "id": "Procedure-123703",
        "meta": {
          "profile": [
            "http://hl7.org/fhir/us/hedis/StructureDefinition/hedis-procedure"
          ]
        },
        "extension": [
          {
            "url": "http://mihin.org/extension/copyright",
            "valueString": "Copyright 2014-2018 Michigan Health Information Network Shared Services. Licensed under the Apache License, Version 2.0 (the 'License'); you may not use this file except in compliance with the License. You may obtain a copy of the License at  http://www.apache.org/licenses/LICENSE-2.0.  Unless required by applicable law or agreed to in writing, software distributed under the License is distributed on an 'AS IS' BASIS, WITHOUT WARRANTIES OR CONDITIONS OF ANY KIND, either express or implied. See the License for the specific language governing permissions and limitations under the License."
          }
        ],
        "identifier": [
          {
            "use": "official",
            "system": "mihin.org/fhir/sid/elementId",
            "value": "b78b2284-d745-4d3f-8fca-b2b95ecf71b3"
          }
        ],
        "status": "completed",
        "code": {
          "coding": [
            {
              "system": "http://snomed.info/sct",
              "code": "430193006",
              "display": "Medication Reconciliation (procedure)"
            }
          ]
        },
        "subject": {
          "reference": "Patient/Patient-505",
          "display": "Nicholas Clinton Hill Jr"
        },
        "context": {
          "reference": "Encounter/Encounter-4265",
          "display": "Ambulatory_Encounter"
        },
        "performedPeriod": {
          "start": "2019-04-17T00:00:00-04:00",
          "end": "2019-04-17T00:00:00-04:00"
        },
        "performer": [
          {
            "actor": {
              "reference": "Practitioner/Practitioner-51",
              "display": "Derek Henry Maynard MD"
            }
          }
        ],
        "location": {
          "reference": "Location/Location-181",
          "display": "Mother Charity Hospital"
        }
      },
      "request": {
        "method": "PUT",
        "url": "http://localhost:8080/cqf-ruler/baseDstu3/Procedure/Procedure-123703"
      }
    }
  ]
}