{
  "resourceType": "Bundle",
  "id": "EXM108-FHIR3-7.4.000-bundle",
  "type": "transaction",
  "entry": [ {
    "resource": {
      "resourceType": "Patient",
      "id": "numer-EXM108-FHIR3",
      "meta": {
        "profile": [ "http://hl7.org/fhir/us/core/StructureDefinition/us-core-patient" ]
      },
      "extension": [ {
        "url": "http://hl7.org/fhir/us/core/StructureDefinition/us-core-race",
        "extension": [ {
          "url": "ombCategory",
          "valueCoding": {
            "system": "urn:oid:2.16.840.1.113883.6.238",
            "code": "2106-3",
            "display": "White"
          }
        } ]
      }, {
        "url": "http://hl7.org/fhir/us/core/StructureDefinition/us-core-ethnicity",
        "extension": [ {
          "url": "ombCategory",
          "valueCoding": {
            "system": "urn:oid:2.16.840.1.113883.6.238",
            "code": "2186-5",
            "display": "Not Hispanic or Latino"
          }
        } ]
      } ],
      "identifier": [ {
        "use": "usual",
        "type": {
          "coding": [ {
            "system": "http://terminology.hl7.org/CodeSystem/v2-0203",
            "code": "MR",
            "display": "Medical Record Number"
          } ]
        },
        "system": "http://hospital.smarthealthit.org",
        "value": "999999997"
      } ],
      "name": [ {
        "family": "Smith",
        "given": [ "Jill" ]
      } ],
      "gender": "female",
      "birthDate": "1963-09-13"
    },
    "request": {
      "method": "PUT",
      "url": "Patient/numer-EXM108-FHIR3"
    }
  }, {
    "resource": {
      "resourceType": "Encounter",
      "id": "denom-EXM108-FHIR3-1",
      "meta": {
        "profile": [ "http://hl7.org/fhir/us/core/StructureDefinition/us-core-encounter" ]
      },
      "status": "finished",
      "class": {
        "system": "http://terminology.hl7.org/CodeSystem/v3-ActCode",
        "code": "IMP",
        "display": "inpatient encounter"
      },
      "type": [ {
        "coding": [ {
          "system": "http://snomed.info/sct",
          "code": "32485007",
          "display": "Hospital admission (procedure)"
        } ]
      } ],
      "subject": {
        "reference": "Patient/denom-EXM108-FHIR3"
      },
      "period": {
        "start": "2019-01-16T08:30:00-07:00",
        "end": "2019-01-20T08:30:00-07:00"
      },
      "diagnosis": [ {
        "condition": {
          "reference": "Condition/denom-EXM108-FHIR3-2"
        }
      } ],
      "hospitalization": {
        "dischargeDisposition": {
          "coding": [ {
            "system": "http://snomed.info/sct",
            "code": "306701001",
            "display": "Discharge to community hospital (procedure)"
          } ]
        }
      }
    },
    "request": {
      "method": "PUT",
      "url": "Encounter/denom-EXM108-FHIR3-1"
    }
  }, {
    "resource": {
      "resourceType": "Condition",
      "id": "denom-EXM108-FHIR3-2",
      "meta": {
        "profile": [ "http://hl7.org/fhir/us/core/StructureDefinition/us-core-condition" ]
      },
      "verificationStatus": "confirmed",
      "category": [ {
        "coding": [ {
          "system": "http://terminology.hl7.org/CodeSystem/condition-category",
          "code": "encounter-diagnosis",
          "display": "Encounter Diagnosis"
        } ]
      } ],
      "code": {
        "coding": [ {
          "system": "http://snomed.info/sct",
          "code": "10327003",
          "display": "Cocaine-induced mood disorder (disorder)"
        } ]
      },
      "subject": {
        "reference": "Patient/denom-EXM108-FHIR3"
      }
    },
    "request": {
      "method": "PUT",
      "url": "Condition/denom-EXM108-FHIR3-2"
    }
  }, {
    "resource": {
      "resourceType": "Procedure",
      "id": "denom-EXM108-FHIR3-4",
      "meta": {
        "profile": [ "http://hl7.org/fhir/us/core/StructureDefinition/us-core-procedure" ]
      },
      "status": "completed",
      "code": {
        "coding": [ {
          "system": "http://snomed.info/sct",
          "code": "112943005",
          "display": "Epidural injection of anesthetic substance"
        } ]
      },
      "subject": {
        "reference": "Patient/denom-EXM108-FHIR3"
      },
      "performedPeriod": {
        "start": "2019-01-17T08:30:00-07:00",
        "end": "2019-01-17T10:30:00-07:00"
      }
    },
    "request": {
      "method": "PUT",
      "url": "Procedure/denom-EXM108-FHIR3-4"
    }
  }, {
    "resource": {
      "resourceType": "MedicationAdministration",
      "id": "denom-EXM108-FHIR3-5",
      "status": "completed",
      "medicationCodeableConcept": {
        "coding": [ {
          "system": "http://www.nlm.nih.gov/research/umls/rxnorm",
          "code": "854228",
          "display": "0.3 ML Enoxaparin sodium 100 MG/ML Prefilled Syringe"
        } ]
      },
      "subject": {
        "reference": "Patient/denom-EXM108-FHIR3"
      },
      "effectivePeriod": {
        "start": "2019-01-19T12:30:00-07:00",
        "end": "2019-01-19T13:00:00-07:00"
      }
    },
    "request": {
      "method": "PUT",
      "url": "MedicationAdministration/denom-EXM108-FHIR3-5"
    }
  }, {
    "resource": {
      "resourceType": "MeasureReport",
      "id": "measurereport-denom-EXM108-FHIR3",
      "contained": [ {
        "resourceType": "Bundle",
        "id": "e1a37198-69ec-41c5-9fcf-4929c231bc44",
        "type": "collection",
        "entry": [ {
          "fullUrl": "30efef19-7b8e-48a9-b2f5-b3eaa313b6a7",
          "resource": {
            "resourceType": "List",
            "id": "30efef19-7b8e-48a9-b2f5-b3eaa313b6a7",
            "title": "initial-population",
            "entry": [ {
              "item": {
                "reference": "denom-EXM108-FHIR3"
              }
            }, {
              "item": {
                "reference": "denom-EXM108-FHIR3-2"
              }
            }, {
              "item": {
                "reference": "denom-EXM108-FHIR3-1"
              }
            } ]
          }
        }, {
          "fullUrl": "Patient/denom-EXM108-FHIR3",
          "resource": {
            "resourceType": "Patient",
            "id": "denom-EXM108-FHIR3",
            "meta": {
              "profile": [ "http://hl7.org/fhir/us/core/StructureDefinition/us-core-patient" ]
            },
            "extension": [ {
              "url": "http://hl7.org/fhir/us/core/StructureDefinition/us-core-race",
              "extension": [ {
                "url": "ombCategory",
                "valueCoding": {
                  "system": "urn:oid:2.16.840.1.113883.6.238",
                  "code": "2106-3",
                  "display": "White"
                }
              } ]
            }, {
              "url": "http://hl7.org/fhir/us/core/StructureDefinition/us-core-ethnicity",
              "extension": [ {
                "url": "ombCategory",
                "valueCoding": {
                  "system": "urn:oid:2.16.840.1.113883.6.238",
                  "code": "2186-5",
                  "display": "Not Hispanic or Latino"
                }
              } ]
            } ],
            "identifier": [ {
              "use": "usual",
              "type": {
                "coding": [ {
                  "system": "http://terminology.hl7.org/CodeSystem/v2-0203",
                  "code": "MR",
                  "display": "Medical Record Number"
                } ]
              },
              "system": "http://hospital.smarthealthit.org",
              "value": "999999996"
            } ],
            "name": [ {
              "family": "Jones",
              "given": [ "Frank" ]
            } ],
            "gender": "male",
            "birthDate": "1951-05-01"
          }
        }, {
          "fullUrl": "45e42bd6-3157-4777-9e1c-d7c13465d7fa",
          "resource": {
            "resourceType": "List",
            "id": "45e42bd6-3157-4777-9e1c-d7c13465d7fa",
            "title": "denominator",
            "entry": [ {
              "item": {
                "reference": "denom-EXM108-FHIR3-4"
              }
            } ]
          }
        }, {
          "fullUrl": "9681b25d-c100-4626-9510-4f0e48385a24",
          "resource": {
            "resourceType": "List",
            "id": "9681b25d-c100-4626-9510-4f0e48385a24",
            "title": "numerator",
            "entry": [ {
              "item": {
                "reference": "denom-EXM108-FHIR3-4"
              }
            }, {
              "item": {
                "reference": "denom-EXM108-FHIR3-2"
              }
            }, {
              "item": {
                "reference": "denom-EXM108-FHIR3-5"
              }
            } ]
          }
        }, {
          "fullUrl": "Condition/denom-EXM108-FHIR3-2",
          "resource": {
            "resourceType": "Condition",
            "id": "denom-EXM108-FHIR3-2",
            "meta": {
              "profile": [ "http://hl7.org/fhir/us/core/StructureDefinition/us-core-condition" ]
            },
            "verificationStatus": "confirmed",
            "category": [ {
              "coding": [ {
                "system": "http://terminology.hl7.org/CodeSystem/condition-category",
                "code": "encounter-diagnosis",
                "display": "Encounter Diagnosis"
              } ]
            } ],
            "code": {
              "coding": [ {
                "system": "http://snomed.info/sct",
                "code": "10327003",
                "display": "Cocaine-induced mood disorder (disorder)"
              } ]
            },
            "subject": {
              "reference": "Patient/denom-EXM108-FHIR3"
            }
          }
        }, {
          "fullUrl": "Procedure/denom-EXM108-FHIR3-4",
          "resource": {
            "resourceType": "Procedure",
            "id": "denom-EXM108-FHIR3-4",
            "meta": {
              "profile": [ "http://hl7.org/fhir/us/core/StructureDefinition/us-core-procedure" ]
            },
            "status": "completed",
            "code": {
              "coding": [ {
                "system": "http://snomed.info/sct",
                "code": "112943005",
                "display": "Epidural injection of anesthetic substance"
              } ]
            },
            "subject": {
              "reference": "Patient/denom-EXM108-FHIR3"
            },
            "performedPeriod": {
              "start": "2019-01-17T08:30:00-07:00",
              "end": "2019-01-17T10:30:00-07:00"
            }
          }
        }, {
          "fullUrl": "Encounter/denom-EXM108-FHIR3-1",
          "resource": {
            "resourceType": "Encounter",
            "id": "denom-EXM108-FHIR3-1",
            "meta": {
              "profile": [ "http://hl7.org/fhir/us/core/StructureDefinition/us-core-encounter" ]
            },
            "status": "finished",
            "class": {
              "system": "http://terminology.hl7.org/CodeSystem/v3-ActCode",
              "code": "IMP",
              "display": "inpatient encounter"
            },
            "type": [ {
              "coding": [ {
                "system": "http://snomed.info/sct",
                "code": "32485007",
                "display": "Hospital admission (procedure)"
              } ]
            } ],
            "subject": {
              "reference": "Patient/denom-EXM108-FHIR3"
            },
            "period": {
              "start": "2019-01-16T08:30:00-07:00",
              "end": "2019-01-20T08:30:00-07:00"
            },
            "diagnosis": [ {
              "condition": {
                "reference": "Condition/denom-EXM108-FHIR3-2"
              }
            } ],
            "hospitalization": {
              "dischargeDisposition": {
                "coding": [ {
                  "system": "http://snomed.info/sct",
                  "code": "306701001",
                  "display": "Discharge to community hospital (procedure)"
                } ]
              }
            }
          }
        }, {
          "fullUrl": "MedicationAdministration/denom-EXM108-FHIR3-5",
          "resource": {
            "resourceType": "MedicationAdministration",
            "id": "denom-EXM108-FHIR3-5",
            "meta": { },
            "status": "completed",
            "medicationCodeableConcept": {
              "coding": [ {
                "system": "http://www.nlm.nih.gov/research/umls/rxnorm",
                "code": "854228",
                "display": "0.3 ML Enoxaparin sodium 100 MG/ML Prefilled Syringe"
              } ]
            },
            "subject": {
              "reference": "Patient/denom-EXM108-FHIR3"
            },
            "effectivePeriod": {
              "start": "2019-01-19T12:30:00-07:00",
              "end": "2019-01-19T13:00:00-07:00"
            }
          }
        } ]
      } ],
      "status": "complete",
      "type": "individual",
      "measure": {
        "reference": "Measure/EXM108-FHIR3-7.4.000"
      },
      "patient": {
        "reference": "Patient/denom-EXM108-FHIR3"
      },
      "period": {
        "start": "2019-01-01T00:00:00-07:00",
        "end": "2019-12-31T00:00:00-07:00"
      },
      "group": [ {
        "identifier": {
          "value": "group-1"
        },
        "population": [ {
          "code": {
            "coding": [ {
              "system": "http://terminology.hl7.org/CodeSystem/measure-population",
              "code": "initial-population",
              "display": "Initial Population"
            } ]
          },
          "count": 1
        }, {
          "code": {
            "coding": [ {
              "system": "http://terminology.hl7.org/CodeSystem/measure-population",
              "code": "numerator",
              "display": "Numerator"
            } ]
          },
          "count": 0
        }, {
          "code": {
            "coding": [ {
              "system": "http://terminology.hl7.org/CodeSystem/measure-population",
              "code": "denominator",
              "display": "Denominator"
            } ]
          },
          "count": 1
        }, {
          "code": {
            "coding": [ {
              "system": "http://terminology.hl7.org/CodeSystem/measure-population",
              "code": "denominator-exclusion",
              "display": "Denominator Exclusion"
            } ]
          },
          "count": 0
        } ],
        "measureScore": 0.0
      } ],
      "evaluatedResources": {
        "reference": "#e1a37198-69ec-41c5-9fcf-4929c231bc44"
      }
    },
    "request": {
      "method": "PUT",
      "url": "MeasureReport/measurereport-denom-EXM108-FHIR3"
    }
  }, {
    "resource": {
      "resourceType": "Patient",
      "id": "denom-EXM108-FHIR3",
      "meta": {
        "profile": [ "http://hl7.org/fhir/us/core/StructureDefinition/us-core-patient" ]
      },
      "extension": [ {
        "url": "http://hl7.org/fhir/us/core/StructureDefinition/us-core-race",
        "extension": [ {
          "url": "ombCategory",
          "valueCoding": {
            "system": "urn:oid:2.16.840.1.113883.6.238",
            "code": "2106-3",
            "display": "White"
          }
        } ]
      }, {
        "url": "http://hl7.org/fhir/us/core/StructureDefinition/us-core-ethnicity",
        "extension": [ {
          "url": "ombCategory",
          "valueCoding": {
            "system": "urn:oid:2.16.840.1.113883.6.238",
            "code": "2186-5",
            "display": "Not Hispanic or Latino"
          }
        } ]
      } ],
      "identifier": [ {
        "use": "usual",
        "type": {
          "coding": [ {
            "system": "http://terminology.hl7.org/CodeSystem/v2-0203",
            "code": "MR",
            "display": "Medical Record Number"
          } ]
        },
        "system": "http://hospital.smarthealthit.org",
        "value": "999999996"
      } ],
      "name": [ {
        "family": "Jones",
        "given": [ "Frank" ]
      } ],
      "gender": "male",
      "birthDate": "1951-05-01"
    },
    "request": {
      "method": "PUT",
      "url": "Patient/denom-EXM108-FHIR3"
    }
  }, {
    "resource": {
      "resourceType": "MeasureReport",
      "id": "measurereport-numer-EXM108-FHIR3",
      "contained": [ {
        "resourceType": "Bundle",
        "id": "13687040-a0ad-4346-b7c8-174e53903241",
        "type": "collection",
        "entry": [ {
          "fullUrl": "DeviceUseStatement/numer-EXM108-FHIR3-4",
          "resource": {
            "resourceType": "DeviceUseStatement",
            "id": "numer-EXM108-FHIR3-4",
            "meta": { },
            "status": "completed",
            "subject": {
              "reference": "Patient/numer-EXM108-FHIR3"
            },
            "whenUsed": {
              "start": "2019-01-17T12:30:00-07:00",
              "end": "2019-01-17T12:45:00-07:00"
            },
            "device": {
              "reference": "Device/numer-EXM108-FHIR3-5"
            }
          }
        }, {
          "fullUrl": "3be57d89-c27f-4923-8ecb-8ba7405d0413",
          "resource": {
            "resourceType": "List",
            "id": "3be57d89-c27f-4923-8ecb-8ba7405d0413",
            "title": "initial-population",
            "entry": [ {
              "item": {
                "reference": "numer-EXM108-FHIR3-2"
              }
            }, {
              "item": {
                "reference": "numer-EXM108-FHIR3-3"
              }
            }, {
              "item": {
                "reference": "numer-EXM108-FHIR3"
              }
            } ]
          }
        }, {
          "fullUrl": "Condition/numer-EXM108-FHIR3-2",
          "resource": {
            "resourceType": "Condition",
            "id": "numer-EXM108-FHIR3-2",
            "meta": {
              "profile": [ "http://hl7.org/fhir/us/core/StructureDefinition/us-core-condition" ]
            },
            "verificationStatus": "confirmed",
            "category": [ {
              "coding": [ {
                "system": "http://terminology.hl7.org/CodeSystem/condition-category",
                "code": "encounter-diagnosis",
                "display": "Encounter Diagnosis"
              } ]
            } ],
            "code": {
              "coding": [ {
                "system": "http://snomed.info/sct",
                "code": "213213007",
                "display": "Cardiac arrest as a complication of care (disorder)"
              } ]
            },
            "subject": {
              "reference": "Patient/numer-EXM108-FHIR3"
            }
          }
        }, {
          "fullUrl": "e789a14e-d0f0-4851-b66a-4c3e52d97cfd",
          "resource": {
            "resourceType": "List",
            "id": "e789a14e-d0f0-4851-b66a-4c3e52d97cfd",
            "title": "numerator",
            "entry": [ {
              "item": {
                "reference": "numer-EXM108-FHIR3-4"
              }
            }, {
              "item": {
                "reference": "numer-EXM108-FHIR3-2"
              }
            }, {
              "item": {
                "reference": "numer-EXM108-FHIR3-5"
              }
            } ]
          }
        }, {
          "fullUrl": "Encounter/numer-EXM108-FHIR3-3",
          "resource": {
            "resourceType": "Encounter",
            "id": "numer-EXM108-FHIR3-3",
            "meta": {
              "profile": [ "http://hl7.org/fhir/us/core/StructureDefinition/us-core-encounter" ]
            },
            "status": "finished",
            "class": {
              "system": "http://terminology.hl7.org/CodeSystem/v3-ActCode",
              "code": "IMP",
              "display": "inpatient encounter"
            },
            "type": [ {
              "coding": [ {
                "system": "http://snomed.info/sct",
                "code": "32485007",
                "display": "Hospital admission (procedure)"
              } ]
            } ],
            "subject": {
              "reference": "Patient/numer-EXM108-FHIR3"
            },
            "period": {
              "start": "2019-01-16T08:30:00-07:00",
              "end": "2019-01-20T08:30:00-07:00"
            },
            "diagnosis": [ {
              "condition": {
                "reference": "Condition/numer-EXM108-FHIR3-2"
              },
              "role": {
                "coding": [ {
                  "system": "http://hl7.org/fhir/diagnosis-role",
                  "code": "billing",
                  "display": "Billing"
                } ]
              },
              "rank": 1
            } ],
            "hospitalization": {
              "dischargeDisposition": {
                "coding": [ {
                  "system": "http://snomed.info/sct",
                  "code": "306701001",
                  "display": "Discharge to community hospital (procedure)"
                } ]
              }
            }
          }
        }, {
          "fullUrl": "Device/numer-EXM108-FHIR3-5",
          "resource": {
            "resourceType": "Device",
            "id": "numer-EXM108-FHIR3-5",
            "meta": { },
            "type": {
              "coding": [ {
                "system": "http://snomed.info/sct",
                "code": "442023007",
                "display": "Venous foot pump, device (physical object)"
              } ]
            },
            "patient": {
              "reference": "Patient/numer-EXM108-FHIR3"
            }
          }
        }, {
          "fullUrl": "57551388-2811-461a-9d7e-a927d001e4ef",
          "resource": {
            "resourceType": "List",
            "id": "57551388-2811-461a-9d7e-a927d001e4ef",
            "title": "denominator",
            "entry": [ {
              "item": {
                "reference": "numer-EXM108-FHIR3-2"
              }
            } ]
          }
        }, {
          "fullUrl": "Patient/numer-EXM108-FHIR3",
          "resource": {
            "resourceType": "Patient",
            "id": "numer-EXM108-FHIR3",
            "meta": {
              "profile": [ "http://hl7.org/fhir/us/core/StructureDefinition/us-core-patient" ]
            },
            "extension": [ {
              "url": "http://hl7.org/fhir/us/core/StructureDefinition/us-core-race",
              "extension": [ {
                "url": "ombCategory",
                "valueCoding": {
                  "system": "urn:oid:2.16.840.1.113883.6.238",
                  "code": "2106-3",
                  "display": "White"
                }
              } ]
            }, {
              "url": "http://hl7.org/fhir/us/core/StructureDefinition/us-core-ethnicity",
              "extension": [ {
                "url": "ombCategory",
                "valueCoding": {
                  "system": "urn:oid:2.16.840.1.113883.6.238",
                  "code": "2186-5",
                  "display": "Not Hispanic or Latino"
                }
              } ]
            } ],
            "identifier": [ {
              "use": "usual",
              "type": {
                "coding": [ {
                  "system": "http://terminology.hl7.org/CodeSystem/v2-0203",
                  "code": "MR",
                  "display": "Medical Record Number"
                } ]
              },
              "system": "http://hospital.smarthealthit.org",
              "value": "999999997"
            } ],
            "name": [ {
              "family": "Smith",
              "given": [ "Jill" ]
            } ],
            "gender": "female",
            "birthDate": "1963-09-13"
          }
        } ]
      } ],
      "status": "complete",
      "type": "individual",
      "measure": {
        "reference": "Measure/EXM108-FHIR3-7.4.000"
      },
      "patient": {
        "reference": "Patient/numer-EXM108-FHIR3"
      },
      "period": {
        "start": "2019-01-01T00:00:00-07:00",
        "end": "2019-12-31T00:00:00-07:00"
      },
      "group": [ {
        "identifier": {
          "value": "group-1"
        },
        "population": [ {
          "code": {
            "coding": [ {
              "system": "http://terminology.hl7.org/CodeSystem/measure-population",
              "code": "initial-population",
              "display": "Initial Population"
            } ]
          },
          "count": 1
        }, {
          "code": {
            "coding": [ {
              "system": "http://terminology.hl7.org/CodeSystem/measure-population",
              "code": "numerator",
              "display": "Numerator"
            } ]
          },
          "count": 1
        }, {
          "code": {
            "coding": [ {
              "system": "http://terminology.hl7.org/CodeSystem/measure-population",
              "code": "denominator",
              "display": "Denominator"
            } ]
          },
          "count": 1
        }, {
          "code": {
            "coding": [ {
              "system": "http://terminology.hl7.org/CodeSystem/measure-population",
              "code": "denominator-exclusion",
              "display": "Denominator Exclusion"
            } ]
          },
          "count": 0
        } ],
        "measureScore": 1.0
      } ],
      "evaluatedResources": {
        "reference": "#13687040-a0ad-4346-b7c8-174e53903241"
      }
    },
    "request": {
      "method": "PUT",
      "url": "MeasureReport/measurereport-numer-EXM108-FHIR3"
    }
  }, {
    "resource": {
      "resourceType": "Device",
      "id": "numer-EXM108-FHIR3-5",
      "type": {
        "coding": [ {
          "system": "http://snomed.info/sct",
          "code": "442023007",
          "display": "Venous foot pump, device (physical object)"
        } ]
      },
      "patient": {
        "reference": "Patient/numer-EXM108-FHIR3"
      }
    },
    "request": {
      "method": "PUT",
      "url": "Device/numer-EXM108-FHIR3-5"
    }
  }, {
    "resource": {
      "resourceType": "Measure",
      "id": "EXM108-FHIR3-7.4.000",
      "meta": {
        "versionId": "4",
        "lastUpdated": "2019-09-13T19:28:07.582+00:00",
        "profile": [ "http://hl7.org/fhir/us/cqfmeasures/StructureDefinition/proportion-measure-cqfm" ]
      },
      "text": {
        "status": "generated",
        "div": "<div xmlns=\"http://www.w3.org/1999/xhtml\"><table style=\"width: 60%; border-bottom: none;\" class=\"header_table\">      <!-- <tr th:if=\"${resource.hasId()}\" style=\"vertical-align: top;\"><th style=\"background-color:#656565; width:20%\" scope=\"row\"><span class=\"td_label\">Id: </span></th><td style=\"width:80%\" colspan=\"3\"  th:narrative=\"${resource.id}\"></td></tr> -->      <!-- <th:block th:each=\"ident, iter : ${resource.identifier}\"><tr th:if=\"${ident.type.coding[0].code == 'CMS'}\" style=\"vertical-align: top;\"><td style=\"background-color:#656565; width:20%\" scope=\"row\"><span class=\"td_label\">eCQM Identifier (Measure Authoring Tool)</span></td><td style=\"width:30%\" th:narrative=\"${ident.value}\"></td><td style=\"background-color:#656565; width:20%\" scope=\"row\"><span class=\"td_label\">eCQM Version number</span></td><td style=\"width:30%\" th:narrative=\"${resource.version}\"></td></tr></th:block><th:block th:each=\"ident, iter : ${resource.identifier}\"><tr th:if=\"${ident.type.coding[0].code == 'NQF'}\" style=\"vertical-align: top;\"><td style=\"background-color:#656565; width:20%\" scope=\"row\"><span class=\"td_label\">NQF Number</span></td><td style=\"width:30%\" th:narrative=\"${ident.value}\"></td><td style=\"background-color:#656565; width:20%\" scope=\"row\"><span class=\"td_label\">GUID</span></td><td style=\"width:30%\" th:narrative=\"${resource.url}\"></td></tr></th:block> --><tr><td scope=\"row\" style=\"background-color:#656565; width:20%\"><span class=\"td_label\">Measurement Period</span></td><td colspan=\"3\" style=\"width:80%\">null - null</td></tr>      <!-- <tr><td style=\"background-color:#656565; width:20%\" scope=\"row\"><span class=\"td_label\">Measure Steward</span></td><td style=\"width:80%\" colspan=\"3\" th:narrative=\"${resource.publisher}\"></td></tr><tr><td style=\"background-color:#656565; width:20%\" scope=\"row\"><span class=\"td_label\">Measure Developer</span></td><td style=\"width:80%\" colspan=\"3\" th:narrative=\"${resource.publisher}\"></td></tr> -->      <!-- <tr th:if=\"${resource.hasDisclaimer()}\"><td style=\"background-color:#656565; width:20%\" scope=\"row\"><span class=\"td_label\">Disclaimer</span></td><td style=\"width:80%\" colspan=\"3\"><div style=\"width:660px;overflow-x:hidden;overflow-y:auto\"><pre th:text=\"${resource.disclaimer}\"></pre>\n                </div>\n            </td>\n        </tr> -->\n        <tr>\n            <td scope=\"row\" style=\"background-color:#656565; width:20%\"><span class=\"td_label\">Copyright and Disclaimer Notice</span></td>\n            <td colspan=\"3\" style=\"width:80%\">\n                <div style=\"width:660px;overflow-x:hidden;overflow-y:auto\">\n                    \n                    \n                    <pre>HEDIS%26reg; is a registered trademark of the National Committee for Quality Assurance (NCQA). The HEDIS measures and specifications are owned by NCQA. NCQA holds a copyright in the HEDIS measures and specifications and may rescind or alter these measures and specifications at any time. Users of the HEDIS measures and specifications shall not have the right to alter, enhance or otherwise modify the HEDIS measures and specifications, and shall not disassemble, recompile or reverse engineer the HEDIS measures and specifications. Anyone desiring to use or reproduce the materials, subject to licensed user restrictions, without modification for an internal, non-commercial purpose may do so without obtaining any approval from NCQA. Use of the Rules for Allowable Adjustments of HEDIS to make permitted adjustments of the materials does not constitute a modification. All other uses, including a commercial use, or any external reproduction, distribution and publication must be approved by NCQA and are subject to a license at the discretion of NCQA.\n\nHEDIS measures and specifications are not clinical guidelines, do not establish a standard of medical care and have not been tested for all potential applications. The measures and specifications are provided “as is” without warranty of any kind. NCQA makes no representations, warranties or endorsements about the quality of any product, test or protocol identified as numerator compliant or otherwise identified as meeting the requirements of a HEDIS measure or specification. NCQA also makes no representations, warranties or endorsements about the quality of any organization or clinician who uses or reports performance measures. NCQA has no liability to anyone who relies on HEDIS measures and specifications or data reflective of performance under such measures and specifications.\n\nCalculated measure results, based on unadjusted HEDIS specifications, may not be termed “Health Plan HEDIS rates” until the logic used to produce the measure results has been certified by NCQA and has been audited and designated reportable by an NCQA-Certified Auditor. Such results should be referred to as “Uncertified, Unaudited Health Plan HEDIS Rates.”\n\nCalculated measure results, based on adjusted HEDIS specifications, may not be termed “Adjusted HEDIS rates” until the logic used to produce the measure results has been certified by NCQA and has been audited and designated reportable by an NCQA-Certified Auditor. Such results should be referred to as “Adjusted, Uncertified, Unaudited HEDIS Rates.”\n\nLimited proprietary coding is contained in the measure specifications for convenience. Users of the proprietary code sets should obtain all necessary licenses from the owners of these code sets. NCQA disclaims all liability for use or accuracy of any coding contained in the specifications.\n\nThe American Medical Association holds a copyright to the CPT%26reg; codes contained in the measures specifications.\n\nThe American Hospital Association holds a copyright to the Uniform Bill Codes (UB) contained in the measure specifications. The UB Codes in the HEDIS specifications are included with the permission of the AHA. The UB Codes contained in the HEDIS specifications may be used by health plans and other health care delivery organizations for the purpose of calculating and reporting HEDIS measure results or using HEDIS measure results for their internal quality improvement purposes. All other uses of the UB Codes require a license from the AHA. Anyone desiring to use the UB Codes in a commercial Product(s) to generate HEDIS results, or for any other commercial use, must obtain a commercial use license directly from the AHA. To inquire about licensing, contact ub04@healthforum.com.\n\nSome measure specifications contain coding from LOINC%26reg; (http://loinc.org). The LOINC table, LOINC codes, LOINC panels and form file, LOINC linguistic variants file, LOINC/RSNA Radiology Playbook, and LOINC/IEEE Medical Device Code Mapping Table are copyright %26copy; 1995-2019, Regenstrief Institute, Inc. and the Logical Observation Identifiers Names and Codes (LOINC) Committee and is available at no cost under the license at http://loinc.org/terms-of-use.\n\n&quot;SNOMED” and “SNOMED CT” are registered trademarks of the International Health Terminology Standards Development Organization (IHTSDO).\n\n“HL7” is the registered trademark of Health Level Seven International.\n\n%26copy; 2019 by the National Committee for Quality Assurance, all rights reserved.</pre>\n                </div>\n            </td>\n        </tr>\n        \n        \n        <tr>\n            <td colspan=\"4\" scope=\"row\" style=\"background-color:#656565; width:100%\"><span class=\"td_label\">Characteristics</span></td>\n        </tr>\n        \n              <!-- <tr th:if=\"${resource.hasCompositeScoring()}\">\n            <td style=\"width:20%\" scope=\"row\"><span class=\"td_label\">Composite Scoring</span></td>\n            <td style=\"width:80%\" colspan=\"3\" th:narrative=\"${resource.compositeScoring.getText().substring(0, 1).toUpperCase() + resource.compositeScoring.getText().substring(1)}\"></td>\n        </tr> -->\n        \n              <!-- <tr th:if=\"${resource.hasStatus()}\" style=\"vertical-align: top;\">\n            <td style=\"background-color:#656565; width:20%\" scope=\"row\"><span class=\"td_label\">Status</span></td>\n            <td style=\"width:80%\" colspan=\"3\" th:narrative=\"${resource.status.toString().substring(0, 1).toUpperCase() + resource.status.toString().substring(1).toLowerCase()}\"></td>\n        </tr>\n        <tr th:if=\"${resource.hasPurpose()}\" style=\"vertical-align: top;\">\n            <td style=\"background-color:#656565; width:20%\" scope=\"row\"><span class=\"td_label\">Purpose</span></td>\n            <td style=\"width:80%\" colspan=\"3\" th:narrative=\"${resource.purpose}\"></td>\n        </tr>\n        <tr th:if=\"${resource.hasUsage()}\" style=\"vertical-align: top;\" >\n            <td style=\"background-color:#656565; width:20%\" scope=\"row\"><span class=\"td_label\">Usage</span></td>\n            <td style=\"width:80%\" colspan=\"3\" th:narrative=\"${resource.usage}\"></td>\n        </tr>\n        <th:block th:each=\"context, iter : ${resource.useContext}\" >\n            <tr style=\"vertical-align: top;\">\n                <td th:if=\"${iter.index == 0}\" th:rowspan=\"${iter.size}\" style=\"background-color:#656565; width:20%\" scope=\"row\"><span class=\"td_label\">Use Context</span></td>\n                <td style=\"width:80%\" colspan=\"3\" th:narrative=\"${context}\"></td>\n            </tr>\n        </th:block>\n        <th:block th:each=\"topics, iter : ${resource.topic}\" >\n            <tr style=\"vertical-align: top;\">\n                <td th:if=\"${iter.index == 0}\" th:rowspan=\"${iter.size}\" style=\"background-color:#656565; width:20%\" scope=\"row\"><span class=\"td_label\">Topic</span></td>\n                <td style=\"width:80%\" colspan=\"3\" th:narrative=\"${topics}\"></td>\n            </tr>\n        </th:block>\n        <th:block th:each=\"cont, iter : ${resource.contributor}\" >\n            <tr style=\"vertical-align: top;\">\n                <td th:if=\"${iter.index == 0}\" th:rowspan=\"${iter.size}\" style=\"background-color:#656565; width:20%\" scope=\"row\"><span class=\"td_label\">Contributor</span></td>\n                <td style=\"width:80%\" colspan=\"3\">\n                    <b><span th:narrative=\"${cont.type.toCode()}\"></span>: </b><span th:narrative=\"${cont.name}\"></span>\n                </td>\n            </tr>\n        </th:block> -->\n              <!-- <th:block th:each=\"lib, iter : ${resource.library}\" >\n            <tr style=\"vertical-align: top;\">\n                <td th:if=\"${iter.index == 0}\" th:rowspan=\"${iter.size}\" style=\"background-color:#656565; width:20%\" scope=\"row\"><span class=\"td_label\">Library</span></td>\n                <td style=\"width:80%\" colspan=\"3\">\n                    <p th:if=\"${lib.hasIdentifier()}\"><b>identifier: </b><span th:narrative=\"${lib.identifier}\"></span></p>\n                    <p th:if=\"${lib.hasReference()}\"><b>reference: </b><span th:narrative=\"${lib.reference}\"></span></p>\n                    <p th:if=\"${lib.hasDisplay()}\"><b>display: </b><span th:narrative=\"${lib.display}\"></span></p>\n                </td>\n            </tr>\n        </th:block> -->\n        \n              <!-- <tr th:if=\"${resource.hasRateAggregation()}\" >\n            <td style=\"background-color:#656565; width:20%\" scope=\"row\"><span class=\"td_label\">Rate Aggregation</span></td>\n            <td style=\"width:80%\" colspan=\"3\">\n                <div style=\"width:660px;overflow-x:hidden;overflow-y:auto\">\n                    <pre th:text=\"${resource.rateAggregation}\"></pre>\n                </div>\n            </td>\n        </tr>\n        <tr th:if=\"${resource.hasRationale()}\">\n            <td style=\"background-color:#656565; width:20%\" scope=\"row\"><span class=\"td_label\">Rationale</span></td>\n            <td style=\"width:80%\" colspan=\"3\">\n                <div style=\"width:660px;overflow-x:hidden;overflow-y:auto\">\n                    <pre th:text=\"${resource.rationale}\"></pre>\n                </div>\n            </td>\n        </tr> -->\n        <tr>\n            <td scope=\"row\" style=\"width:20%\"><span>Improvement Notation</span></td>\n            \n            \n        </tr>\n        \n        <tr>\n            <td colspan=\"4\" scope=\"row\" style=\"background-color:#656565; width:100%\"><span class=\"td_label\">Definitions</span></td>\n        </tr>\n        \n        \n              <!-- <th:block th:each=\"groups, iter : ${resource.uniquePopulationGroup}\" >\n            <tr style=\"vertical-align: top;\">\n                <td style=\"background-color:#656565; width:20%\" scope=\"row\"><span class=\"td_label\" th:text=\"${groups.identifier.value}\"></span></td>\n                <td style=\"width:80%\" colspan=\"3\">\n                    <div style=\"width:660px;overflow-x:hidden;overflow-y:auto\">\n                        <pre th:text=\"${pops.description}\"></pre>\n                    </div>\n                </td>\n            </tr>\n        </th:block> -->\n    </table>\n    <table style=\"width: 60%; border-top: none; border-bottom: none\" class=\"header_table\">\n        \n    </table>\n    <table style=\"width: 60%; border-top: none;\" class=\"header_table\">\n              <!-- <th:block th:each=\"supples, iter : ${resource.supplementalData}\">\n            <tr>\n                <th th:if=\"${iter.index == 0}\" th:rowspan=\"${iter.size}\" scope=\"row\"><b>Supplemental Data:</b></th>\n                <td style=\"width:80%\" colspan=\"3\" >\n                    <p style=\"margin-bottom: 5px;\" th:narrative=\"${supples.identifier}\"></p>\n                    <p style=\"margin-bottom: 5px;\" th:each=\"uses : ${supples.usage}\">\n                        <b>usage: </b>\n                        <span th:narrative=\"${uses}\"></span>\n                    </p>\n                    <p style=\"margin-bottom: 5px;\" th:if=\"${supples.hasCriteria()}\">\n                        <b>criteria: </b>\n                        <span th:narrative=\"${supples.criteria}\"></span>\n                    </p>\n                    <p style=\"margin-bottom: 5px;\" th:if=\"${supples.hasPath()}\">\n                        <b>path: </b>\n                        <span th:narrative=\"${supples.path}\"></span>\n                    </p>\n                </td>\n            </tr>\n        </th:block> -->\n              <!-- <th:block th:each=\"param, iter : ${resource.parameter}\">\n            <tr style=\"vertical-align: top;\">\n                <th th:if=\"${iter.index == 0}\" th:rowspan=\"${iter.size}\" scope=\"row\"><b>Parameter: </b></th>\n                <td style=\"width:80%\" colspan=\"3\" >\n                    <span th:if=\"${param.hasName()}\">\n                        <b>name: </b>\n                        <span th:narrative=\"${param.name}\"></span>\n                        <br/>\n                    </span>\n                    <b>use: </b>\n                    <span th:narrative=\"${param.use.toCode()}\"></span>\n                    <br/>\n                    <span th:if=\"${param.hasMin()}\">\n                        <b>minimum cardinality: </b>\n                        <span th:narrative=\"${param.min}\"></span>\n                        <br/>\n                    </span>\n                    <span th:if=\"${param.hasMax()}\">\n                        <b>maximum cardinality: </b>\n                        <span th:narrative=\"${param.max}\"></span>\n                        <br/>\n                    </span>\n                    <b>type: </b>\n                    <span th:narrative=\"${param.type}\"></span>\n                    <br/>\n                    <span th:if=\"${param.hasDocumentation()}\">\n                        <b>documentation: </b>\n                        <span th:narrative=\"${param.documentation}\"></span>\n                        <br/>\n                    </span>\n                    <span th:if=\"${param.hasProfile()}\">\n                        <b>profile: </b>\n                        <span th:narrative=\"${param.profile}\"></span>\n                        <br/>\n                    </span>\n                    <p style=\"margin-bottom: 5px;\"></p>\n                </td>\n            </tr>\n        </th:block> -->\n              <!-- <th:block th:each=\"dataReq, iter : ${resource.dataRequirement}\">\n            <tr style=\"vertical-align: top;\">\n                    <th th:if=\"${iter.index == 0}\" th:rowspan=\"${iter.size}\" scope=\"row\" ><b>Data Requirements: </b></th>\n                    <td style=\"width:80%\" colspan=\"3\" th:narrative=\"${dataReq}\"></td>\n            </tr>\n        </th:block> -->\n    </table>\n  <h2><a name=\"toc\">Table of Contents</a></h2>\n  <ul style=\"padding-left: 50px;\">\n   <li><a href=\"#d1e405\">Population Criteria</a></li>\n   <li><a href=\"#d1e649\">Definitions</a></li>\n   <li><a href=\"#d1e650\">Functions</a></li>\n   <li><a href=\"#d1e555\">Terminology</a></li>\n   <li><a href=\"#d1e647\">Data Criteria (QDM Data Elements)</a></li>\n   <li><a href=\"#d1e767\">Supplemental Data Elements</a></li>\n   <li><a href=\"#d1e879\">Risk Adjustment Variables</a></li>\n  </ul>\n  <div style=\"float:left; background:teal; height:3px; width:80%\"/>\n  \n  <h3><a name=\"d1e649\" href=\"#toc\">Definitions</a></h3>\n  \n  <h3><a name=\"d1e650\" href=\"#toc\">Functions</a></h3>\n  \n  <h3><a name=\"d1e555\" href=\"#toc\">Terminology</a></h3>\n  <div>\n   <ul style=\"padding-left: 50px;\">\n    \n   </ul>\n  </div>\n  <h3><a name=\"d1e647\" href=\"#toc\">Data Criteria (QDM Data Elements)</a></h3>\n  <div>\n    <ul style=\"padding-left: 50px;\">\n      \n    </ul>\n  </div>\n  <h3><a name=\"d1e767\" href=\"#toc\">Supplemental Data Elements</a></h3>\n  \n  <div>\n    <ul style=\"list-style:none;padding-left: 25px;\">\n        <li>None</li>\n    </ul>\n </div>\n  <h3><a name=\"d1e879\" href=\"#toc\">Risk Adjustment Variables</a></h3>\n  <div>\n   <ul style=\"list-style:none;padding-left: 25px;\">\n    <li>None</li>\n   </ul>\n  </div>\n  <div style=\"float:left; background:teal; height:3px; width:80%\"/>\n  <table>\n        \n              <!-- <th:block th:each=\"con, iter : ${resource.content}\">\n            <tr th:if=\"${con.contentType == 'text/cql'}\" style=\"vertical-align: top;\">\n                <td style=\"background-color:#656565; width:20%\" scope=\"row\"><span class=\"td_label\">Content</span></td>\n                <td style=\"width:80%\" ><b>type: </b><span th:text=\"${con.contentType}\"></span></td>\n            </tr>\n            <tr th:if=\"${con.contentType == 'text/cql'}\">\n                <td style=\"width:100%\" colspan=\"2\" >\n                    <th:block th:if=\"${con.getData() != null }\" >\n                        <pre><code th:class=\"${con.contentType == 'text/cql' ? 'language-cql' : 'language-xml'}\" th:text=\"${new java.lang.String(con.getData())}\"></code></pre>\n                    </th:block>\n                    <th:block th:if=\"${con.getData() == null }\" >\n                        <span><i>%26lt;content is empty%26gt;</i></span>\n                    </th:block>\n                </td>\n            </tr>\n        </th:block > -->\n    </table>\n</div>"
      },
      "extension": [ {
        "url": "http://hl7.org/fhir/us/cqfmeasures/StructureDefinition/cqfm-populationBasis",
        "valueCode": "boolean"
      } ],
      "url": "http://hl7.org/fhir/us/cqfmeasures/Measure/exm104-FHIR3",
      "identifier": [ {
        "type": {
          "coding": [ {
            "code": "NQF"
          } ]
        },
        "value": "0371"
      }, {
        "use": "official",
        "system": "http://hl7.org/fhir/cqi/ecqm/Measure/Identifier/cms",
        "value": "108"
      } ],
      "version": "7.4.000",
      "name": "EXM108",
      "title": "Venous Thromboembolism Prophylaxis",
      "status": "draft",
      "experimental": true,
      "publisher": "National Committee for Quality Assurance (NCQA)",
      "description": "This measure assesses the number of patients who received VTE prophylaxis or have documentation why no VTE prophylaxis was given the day of or the day after hospital admission or surgery end date for surgeries that start the day of or the day after hospital admission",
      "purpose": "Patients age 18 and older discharged from hospital inpatient acute care without a diagnosis of venous thromboembolism (VTE) or obstetrics with a length of stay less than or equal to 120 days that ends during the measurement period",
      "approvalDate": "2016-01-01",
      "lastReviewDate": "2019-08-19",
      "effectivePeriod": {
        "start": "2019-01-01",
        "end": "2019-12-31"
      },
      "useContext": [ {
        "code": {
          "code": "program"
        },
        "valueCodeableConcept": {
          "text": "eligible-provider"
        }
      } ],
      "jurisdiction": [ {
        "coding": [ {
          "system": "urn:iso:std:iso:3166",
          "code": "US"
        } ]
      } ],
      "topic": [ {
        "coding": [ {
          "system": "http://loinc.org",
          "code": "57024-2",
          "display": "Health Quality Measure Document"
        } ]
      } ],
      "contributor": [ {
        "type": "author",
        "name": "National Committee for Quality Assurance"
      } ],
      "contact": [ {
        "telecom": [ {
          "system": "url",
          "value": "http://www.ncqa.org/"
        } ]
      } ],
      "copyright": "Measure specifications are in the Public Domain. LOINC(R) is a registered trademark of the Regenstrief Institute. This material contains SNOMED Clinical Terms(R) (SNOMED CT(C)) copyright 2004-2017 International Health Terminology Standards Development Organization. All rights reserved.",
      "relatedArtifact": [ {
        "type": "citation",
        "citation": "Cohen AT, Tapson VF, Bergmann JF, et al. Venous thromboembolism risk and prophylaxis in the acute hospital care setting (ENDORSE study): a multinational cross-sectional study. Lancet. 2008;371:387-394."
      }, {
        "type": "citation",
        "citation": "\t\nGeerts  WH, Bergqvist D, Pineo GF, Heit JA, Samama CM, Lassen MR, Colwell CW. Prevention of venous thromboembolism. The Eighth ACCP Conference on antithrombotic and thrombolytic therapy. Chest. 2008; 133:381S-453S"
      }, {
        "type": "citation",
        "citation": "Guyatt, G.H., Akl, E.A., Crowther, M., Gutterman, D., Schunemann, H. Antithrombotic Therapy and Prevention of Thrombosis, 9th edition: American College of Chest Physicians Evidence-Based Clinical Practice Guidelines. CHEST 2012; 141(2)(Supp):7S-47S"
      }, {
        "type": "citation",
        "citation": "Kearon C, Akl EA, Comerota AJ, Prandoni P, Bounameaux H, Goldhaber SZ, Nelson ME, Wells PS, Gould MK, Dentali F, Crowther M, Kahn SR. Antithrombotic therapy for VTE disease: Antithrombotic Therapy and Prevention of Thrombosis, 9th Edition: American College of Chest Physicians Evidence-based Clinical Practice Guidelines. CHEST 2012 Feb; 141(2) (Supp):e419S-94S. "
      }, {
        "type": "citation",
        "citation": "National Quality Forum. National Voluntary Consensus Standards for Prevention and Care of Venous Thromboembolism: Policy, Preferred Practices, and Initial Performance Measures. A Consensus Report. Washington, DC. NQF; 2006"
      }, {
        "type": "citation",
        "citation": "\t\nShojania KG, Duncan BW, McDonald DM, et al. (Eds.). (2001). Making healthcare safer; A critical analysis of patient safety practices (Evidence Report/Technology Assessment No. 43). Prepared by the University of California at San Francisco-Stanford Evidenced-based Practice Center under Contract no. 290-97-0013 (AHRQ Publication NO.01-E058). Rockville, MD:Agency for Healthcare Research and Quality."
      } ],
      "library": [ {
        "reference": "Library/EXM108-FHIR3-7.4.000"
      } ],
      "disclaimer": "These performance measures are not clinical guidelines and do not establish a standard of medical care, and have not been tested for all potential applications. The measures and specifications are provided without warranty",
      "scoring": {
        "coding": [ {
          "system": "http://hl7.org/fhir/measure-scoring",
          "code": "proportion"
        } ]
      },
      "type": [ {
        "coding": [ {
          "system": "http://hl7.org/fhir/measure-type",
          "code": "process"
        } ]
      } ],
      "riskAdjustment": "none",
      "rateAggregation": "none",
      "rationale": "Hospitalized patients at high-risk for VTE may develop an asymptomatic deep vein thrombosis (DVT), and die from pulmonary embolism (PE) even before the diagnosis is suspected. The majority of fatal events occur as sudden or abrupt death, underscoring the importance of prevention as the most critical action step for reducing death from PE (Geerts, et al, 2008).\n\nThe estimated annual incidence of deep-vein thrombosis (DVT) and pulmonary embolism (PE), known collectively as venous thromboembolism (VTE), is approximately 900,000 (Geerts, et al, 2008). Approximately two-thirds of cases of DVT or PE are associated with recent hospitalization. This is consistent with the 2001 report by The Agency for Healthcare Research and Quality (AHRQ). AHRQ indicates that \"the appropriate application of effective preventive measures in hospitals has major potential for improving patient safety by reducing the incidence of venous thromboembolism\" (Shojania, 2001).\n\nDespite its proven effectiveness, rates of appropriate thromboprophylaxis remain low in both medical and surgical patients. A recent analysis from the ENDORSE survey, which evaluated prophylaxis rates in 17,084 major surgery patients, found that more than one third of patients at risk for VTE (38%) did not receive prophylaxis and that rates varied by surgery type (Cohen, et al., 2008).\n\nIn a review of evidence-based patient safety practices, the Agency for Healthcare Research and Quality defined thromboprophylaxis against VTE as the \"number one patient safety practice\" for hospitalized patients (Shojania, 2001). Updated \"safe practices\" published by the National Quality Forum (NQF) recommend routine evaluation of hospitalized patients for risk of VTE and use of appropriate prophylaxis (National Quality Forum. National Voluntary Consensus Standards for Prevention and Care of Venous Thromboembolism, 2006).\n\nAs noted by the ACCP, a vast number of randomized clinical trials provide irrefutable evidence that thromboprophylaxis reduces VTE events, and there are studies that have also shown that fatal PE is prevented by thromboprophylaxis (Geerts, et al. 2008).\n\nSome select surgeries have previously been monitored in the Surgical Care Improvement Project; since performance on these surgeries has achieved very high levels, they are not included in this measure.",
      "clinicalRecommendationStatement": "Failure to recognize and protect patients at risk for venous thromboembolism (VTE) increases the chances for acutely ill hospitalized patients at high risk for developing a deep vein thrombosis or dying from a pulmonary emboli. Screening all patients is the only evidence based practice in reducing incidence of disease.  All hospitalized patients should be evaluated for primary VTE prophylaxis, and given appropriate prophylaxis when indicated.",
      "improvementNotation": "increase",
      "guidance": "When low dose unfractionated heparin is administered for VTE Prophylaxis, the intended administration route for low dose unfractionated heparin is subcutaneous.\n\nReasons for no pharmacological and no mechanical VTE prophylaxis must be explicitly documented by the MD/APN/PA or pharmacist and linked with VTE prophylaxis. Ambulation alone is not a sufficient reason for not administering VTE prophylaxis. In order for ambulation/patient ambulating to be considered as an acceptable reason, there needs to be explicit documentation, e.g., \"patient out of bed and ambulating in halls - no VTE prophylaxis needed.\"",
      "group": [ {
        "identifier": {
          "value": "group-1"
        },
        "population": [ {
          "identifier": {
            "value": "initial-population-identifier"
          },
          "code": {
            "coding": [ {
              "system": "http://terminology.hl7.org/CodeSystem/measure-population",
              "code": "initial-population",
              "display": "Initial Population"
            } ]
          },
          "criteria": "Initial Population"
        }, {
          "identifier": {
            "value": "numerator-identifier"
          },
          "code": {
            "coding": [ {
              "system": "http://terminology.hl7.org/CodeSystem/measure-population",
              "code": "numerator",
              "display": "Numerator"
            } ]
          },
          "criteria": "Numerator"
        }, {
          "identifier": {
            "value": "denominator-identifier"
          },
          "code": {
            "coding": [ {
              "system": "http://terminology.hl7.org/CodeSystem/measure-population",
              "code": "denominator",
              "display": "Denominator"
            } ]
          },
          "criteria": "Denominator"
        }, {
          "identifier": {
            "value": "denominator-exclusions-identifier"
          },
          "code": {
            "coding": [ {
              "system": "http://terminology.hl7.org/CodeSystem/measure-population",
              "code": "denominator-exclusion",
              "display": "Denominator Exclusion"
            } ]
          },
          "criteria": "Denominator Exclusions"
        } ]
      } ],
      "supplementalData": [ {
        "identifier": {
          "value": "sde-ethnicity"
        },
        "usage": [ {
          "coding": [ {
            "system": "http://hl7.org/fhir/measure-data-usage",
            "code": "supplemental-data"
          } ]
        } ],
        "criteria": "SDE Ethnicity"
      }, {
        "identifier": {
          "value": "sde-payer"
        },
        "usage": [ {
          "coding": [ {
            "system": "http://hl7.org/fhir/measure-data-usage",
            "code": "supplemental-data"
          } ]
        } ],
        "criteria": "SDE Payer"
      }, {
        "identifier": {
          "value": "sde-race"
        },
        "usage": [ {
          "coding": [ {
            "system": "http://hl7.org/fhir/measure-data-usage",
            "code": "supplemental-data"
          } ]
        } ],
        "criteria": "SDE Race"
      }, {
        "identifier": {
          "value": "sde-sex"
        },
        "usage": [ {
          "coding": [ {
            "system": "http://hl7.org/fhir/measure-data-usage",
            "code": "supplemental-data"
          } ]
        } ],
        "criteria": "SDE Sex"
      } ]
    },
    "request": {
      "method": "PUT",
      "url": "Measure/EXM108-FHIR3-7.4.000/_history/4"
    }
  }, {
    "resource": {
      "resourceType": "Condition",
      "id": "numer-EXM108-FHIR3-2",
      "meta": {
        "profile": [ "http://hl7.org/fhir/us/core/StructureDefinition/us-core-condition" ]
      },
      "verificationStatus": "confirmed",
      "category": [ {
        "coding": [ {
          "system": "http://terminology.hl7.org/CodeSystem/condition-category",
          "code": "encounter-diagnosis",
          "display": "Encounter Diagnosis"
        } ]
      } ],
      "code": {
        "coding": [ {
          "system": "http://snomed.info/sct",
          "code": "213213007",
          "display": "Cardiac arrest as a complication of care (disorder)"
        } ]
      },
      "subject": {
        "reference": "Patient/numer-EXM108-FHIR3"
      }
    },
    "request": {
      "method": "PUT",
      "url": "Condition/numer-EXM108-FHIR3-2"
    }
  }, {
    "resource": {
      "resourceType": "DeviceUseStatement",
      "id": "numer-EXM108-FHIR3-4",
      "status": "completed",
      "subject": {
        "reference": "Patient/numer-EXM108-FHIR3"
      },
      "whenUsed": {
        "start": "2019-01-17T12:30:00-07:00",
        "end": "2019-01-17T12:45:00-07:00"
      },
      "device": {
        "reference": "Device/numer-EXM108-FHIR3-5"
      }
    },
    "request": {
      "method": "PUT",
      "url": "DeviceUseStatement/numer-EXM108-FHIR3-4"
    }
  }, {
    "resource": {
      "resourceType": "Encounter",
      "id": "numer-EXM108-FHIR3-3",
      "meta": {
        "profile": [ "http://hl7.org/fhir/us/core/StructureDefinition/us-core-encounter" ]
      },
      "status": "finished",
      "class": {
        "system": "http://terminology.hl7.org/CodeSystem/v3-ActCode",
        "code": "IMP",
        "display": "inpatient encounter"
      },
      "type": [ {
        "coding": [ {
          "system": "http://snomed.info/sct",
          "code": "32485007",
          "display": "Hospital admission (procedure)"
        } ]
      } ],
      "subject": {
        "reference": "Patient/numer-EXM108-FHIR3"
      },
      "period": {
        "start": "2019-01-16T08:30:00-07:00",
        "end": "2019-01-20T08:30:00-07:00"
      },
      "diagnosis": [ {
        "condition": {
          "reference": "Condition/numer-EXM108-FHIR3-2"
        },
        "role": {
          "coding": [ {
            "system": "http://hl7.org/fhir/diagnosis-role",
            "code": "billing",
            "display": "Billing"
          } ]
        },
        "rank": 1
      } ],
      "hospitalization": {
        "dischargeDisposition": {
          "coding": [ {
            "system": "http://snomed.info/sct",
            "code": "306701001",
            "display": "Discharge to community hospital (procedure)"
          } ]
        }
      }
    },
    "request": {
      "method": "PUT",
      "url": "Encounter/numer-EXM108-FHIR3-3"
    }
  } ]
}