{
  "resourceType": "Bundle",
  "id": "Marie-Dianne-Donaldson-467-Encounter-2253",
  "type": "transaction",
  "entry": [
    {
      "fullUrl": "http://localhost:8080/cqf-ruler/baseDstu3/Encounter/Encounter-2253",
      "resource": {
        "resourceType": "Encounter",
        "id": "Encounter-2253",
        "meta": {
          "profile": [
            "http://hl7.org/fhir/us/hedis/StructureDefinition/hedis-encounter"
          ]
        },
        "extension": [
          {
            "url": "http://mihin.org/extension/copyright",
            "valueString": "Copyright 2014-2018 Michigan Health Information Network Shared Services. Licensed under the Apache License, Version 2.0 (the 'License'); you may not use this file except in compliance with the License. You may obtain a copy of the License at  http://www.apache.org/licenses/LICENSE-2.0.  Unless required by applicable law or agreed to in writing, software distributed under the License is distributed on an 'AS IS' BASIS, WITHOUT WARRANTIES OR CONDITIONS OF ANY KIND, either express or implied. See the License for the specific language governing permissions and limitations under the License."
          }
        ],
        "status": "finished",
        "class": {
          "system": "http://hl7.org/fhir/encounter-class",
          "code": "ambulatory",
          "display": "ambulatory"
        },
        "type": [
          {
            "coding": [
              {
                "system": "http://snomed.info/sct",
                "code": "185465003",
                "display": "Combined Office Visits"
              }
            ]
          }
        ],
        "subject": {
          "reference": "Patient/Patient-467",
          "display": "Marie Dianne Donaldson"
        },
        "participant": [
          {
            "period": {
              "start": "2018-02-04T00:00:00-05:00",
              "end": "2018-02-04T00:00:00-05:00"
            },
            "individual": {
              "reference": "Practitioner/Practitioner-48",
              "display": "Justin Jim Zimmerman MD"
            }
          }
        ],
        "period": {
          "start": "2018-02-04T00:00:00-05:00",
          "end": "2018-02-04T00:00:00-05:00"
        },
        "location": [
          {
            "location": {
              "reference": "Location/Location-168",
              "display": "St. Michael's Hospital"
            }
          }
        ],
        "serviceProvider": {
          "reference": "Organization/Organization-1014",
          "display": "St. Michael's Hospital"
        }
      },
      "request": {
        "method": "PUT",
        "url": "http://localhost:8080/cqf-ruler/baseDstu3/Encounter/Encounter-2253"
      }
    },
    {
      "fullUrl": "http://localhost:8080/cqf-ruler/baseDstu3/Procedure/Procedure-77550",
      "resource": {
        "resourceType": "Procedure",
        "id": "Procedure-77550",
        "meta": {
          "profile": [
            "http://hl7.org/fhir/us/hedis/StructureDefinition/hedis-procedure"
          ]
        },
        "extension": [
          {
            "url": "http://mihin.org/extension/copyright",
            "valueString": "Copyright 2014-2018 Michigan Health Information Network Shared Services. Licensed under the Apache License, Version 2.0 (the 'License'); you may not use this file except in compliance with the License. You may obtain a copy of the License at  http://www.apache.org/licenses/LICENSE-2.0.  Unless required by applicable law or agreed to in writing, software distributed under the License is distributed on an 'AS IS' BASIS, WITHOUT WARRANTIES OR CONDITIONS OF ANY KIND, either express or implied. See the License for the specific language governing permissions and limitations under the License."
          }
        ],
        "identifier": [
          {
            "use": "official",
            "system": "mihin.org/fhir/sid/elementId",
            "value": "e5c9736b-bbdb-4e8f-89c3-f6e28e50dcd6"
          }
        ],
        "status": "completed",
        "code": {
          "coding": [
            {
              "system": "http://www.ama-assn.org/go/cpt",
              "code": "77057"
            }
          ]
        },
        "subject": {
          "reference": "Patient/Patient-467",
          "display": "Marie Dianne Donaldson"
        },
        "context": {
          "reference": "Encounter/Encounter-2253",
          "display": "Ambulatory_Encounter"
        },
        "performedPeriod": {
          "start": "2018-02-04T00:00:00-05:00",
          "end": "2018-02-04T00:00:00-05:00"
        },
        "performer": [
          {
            "actor": {
              "reference": "Practitioner/Practitioner-48",
              "display": "Justin Jim Zimmerman MD"
            }
          }
        ],
        "location": {
          "reference": "Location/Location-168",
          "display": "St. Michael's Hospital"
        }
      },
      "request": {
        "method": "PUT",
        "url": "http://localhost:8080/cqf-ruler/baseDstu3/Procedure/Procedure-77550"
      }
    },
    {
      "fullUrl": "http://localhost:8080/cqf-ruler/baseDstu3/Condition/Condition-77552",
      "resource": {
        "resourceType": "Condition",
        "id": "Condition-77552",
        "meta": {
          "profile": [
            "http://hl7.org/fhir/us/hedis/StructureDefinition/hedis-condition"
          ]
        },
        "extension": [
          {
            "url": "http://mihin.org/extension/copyright",
            "valueString": "Copyright 2014-2018 Michigan Health Information Network Shared Services. Licensed under the Apache License, Version 2.0 (the 'License'); you may not use this file except in compliance with the License. You may obtain a copy of the License at  http://www.apache.org/licenses/LICENSE-2.0.  Unless required by applicable law or agreed to in writing, software distributed under the License is distributed on an 'AS IS' BASIS, WITHOUT WARRANTIES OR CONDITIONS OF ANY KIND, either express or implied. See the License for the specific language governing permissions and limitations under the License."
          }
        ],
        "identifier": [
          {
            "use": "official",
            "system": "mihin.org/fhir/sid/elementId",
            "value": "eff0b347-0b12-48aa-9e87-b815907e932f"
          }
        ],
        "clinicalStatus": "active",
        "verificationStatus": "confirmed",
        "code": {
          "coding": [
            {
              "system": "http://snomed.info/sct",
              "code": "397145000",
              "display": "Mammography assessment (Category 5) - Highly suggestive of malignancy"
            }
          ]
        },
        "subject": {
          "reference": "Patient/Patient-467",
          "display": "Marie Dianne Donaldson"
        },
        "context": {
          "reference": "Encounter/Encounter-2253",
          "display": "Ambulatory_Encounter"
        },
        "onsetDateTime": "2018-02-04T00:00:00-05:00",
        "assertedDate": "2018-02-04T00:00:00-05:00",
        "asserter": {
          "reference": "Practitioner/Practitioner-48",
          "display": "Justin Jim Zimmerman MD"
        }
      },
      "request": {
        "method": "PUT",
        "url": "http://localhost:8080/cqf-ruler/baseDstu3/Condition/Condition-77552"
      }
    },
    {
      "fullUrl": "http://localhost:8080/cqf-ruler/baseDstu3/Observation/Observation-77553",
      "resource": {
        "resourceType": "Observation",
        "id": "Observation-77553",
        "meta": {
          "profile": [
            "http://hl7.org/fhir/us/hedis/StructureDefinition/hedis-observation"
          ]
        },
        "extension": [
          {
            "url": "http://mihin.org/extension/copyright",
            "valueString": "Copyright 2014-2018 Michigan Health Information Network Shared Services. Licensed under the Apache License, Version 2.0 (the 'License'); you may not use this file except in compliance with the License. You may obtain a copy of the License at  http://www.apache.org/licenses/LICENSE-2.0.  Unless required by applicable law or agreed to in writing, software distributed under the License is distributed on an 'AS IS' BASIS, WITHOUT WARRANTIES OR CONDITIONS OF ANY KIND, either express or implied. See the License for the specific language governing permissions and limitations under the License."
          }
        ],
        "identifier": [
          {
            "use": "official",
            "system": "mihin.org/fhir/sid/elementId",
            "value": "228f74c6-0283-4622-8172-b79c695709cf"
          }
        ],
        "status": "final",
        "category": [
          {
            "coding": [
              {
                "system": "http://hl7.org/fhir/observation-category",
                "code": "exam",
                "display": "Exam"
              }
            ]
          }
        ],
        "code": {
          "coding": [
            {
              "system": "http://snomed.info/sct",
              "code": "397145000",
              "display": "Mammography assessment (Category 5) - Highly suggestive of malignancy"
            }
          ]
        },
        "subject": {
          "reference": "Patient/Patient-467",
          "display": "Marie Dianne Donaldson"
        },
        "context": {
          "reference": "Encounter/Encounter-2253",
          "display": "Ambulatory_Encounter"
        },
        "effectiveDateTime": "2018-02-04T00:00:00-05:00",
        "performer": [
          {
            "reference": "Practitioner/Practitioner-48",
            "display": "Justin Jim Zimmerman MD"
          }
        ],
        "valueString": "POSITIVE"
      },
      "request": {
        "method": "PUT",
        "url": "http://localhost:8080/cqf-ruler/baseDstu3/Observation/Observation-77553"
      }
    },
    {
      "fullUrl": "http://localhost:8080/cqf-ruler/baseDstu3/DiagnosticReport/DiagnosticReport-77554",
      "resource": {
        "resourceType": "DiagnosticReport",
        "id": "DiagnosticReport-77554",
        "meta": {
          "profile": [
            "http://hl7.org/fhir/us/hedis/StructureDefinition/hedis-diagnosticreport"
          ]
        },
        "extension": [
          {
            "url": "http://mihin.org/extension/copyright",
            "valueString": "Copyright 2014-2018 Michigan Health Information Network Shared Services. Licensed under the Apache License, Version 2.0 (the 'License'); you may not use this file except in compliance with the License. You may obtain a copy of the License at  http://www.apache.org/licenses/LICENSE-2.0.  Unless required by applicable law or agreed to in writing, software distributed under the License is distributed on an 'AS IS' BASIS, WITHOUT WARRANTIES OR CONDITIONS OF ANY KIND, either express or implied. See the License for the specific language governing permissions and limitations under the License."
          }
        ],
        "identifier": [
          {
            "use": "official",
            "system": "mihin.org/fhir/sid/elementId",
            "value": "249ead8b-9d8c-4515-8106-75a66259f1f4"
          }
        ],
        "status": "final",
        "code": {
          "coding": [
            {
              "system": "http://loinc.org",
              "code": "37553-5",
              "display": "Breast - left Mammogram spot compression"
            }
          ]
        },
        "subject": {
          "reference": "Patient/Patient-467",
          "display": "Marie Dianne Donaldson"
        },
        "context": {
          "reference": "Encounter/Encounter-2253",
          "display": "Ambulatory_Encounter"
        },
        "effectivePeriod": {
          "start": "2018-02-04T00:00:00-05:00",
          "end": "2018-02-04T00:00:00-05:00"
        },
        "issued": "2018-02-04T00:00:00.000-05:00",
        "result": [
          {
            "reference": "Observation/Observation-77553",
            "display": "Breast_Cancer_Report_Observation_1"
          }
        ]
      },
      "request": {
        "method": "PUT",
        "url": "http://localhost:8080/cqf-ruler/baseDstu3/DiagnosticReport/DiagnosticReport-77554"
      }
    }
  ]
}