{
  "resourceType": "Bundle",
  "id": "EXM349-FHIR3-2.9.000-bundle",
  "type": "transaction",
  "entry": [ {
    "resource": {
      "resourceType": "Bundle",
      "id": "tests-Observation-bundle",
      "type": "transaction",
      "entry": [ {
        "resource": {
          "resourceType": "Observation",
          "id": "numer-EXM349-FHIR3-4",
          "meta": {
            "profile": [ "http://www.http://hl7.org/fhir/FHIR3/observation" ]
          },
          "status": "final",
          "code": {
            "coding": [ {
              "system": "http://loinc.org",
              "code": "10901-7",
              "display": "HIV 2 gp125 Ab [Presence] in Serum by Immunoblot"
            } ]
          },
          "subject": {
            "reference": "Patient/numer-EXM349-FHIR3"
          },
          "effectiveDateTime": "2019-10-21T00:00:00-06:00",
          "valueBoolean": true
        },
        "request": {
          "method": "PUT",
          "url": "Observation/numer-EXM349-FHIR3-4"
        }
      } ]
    },
    "request": {
      "method": "PUT",
      "url": "tests-Observation-bundle"
    }
  }, {
    "resource": {
      "resourceType": "MeasureReport",
      "id": "measurereport-numer-EXM349-FHIR3",
      "contained": [ {
        "resourceType": "Bundle",
        "id": "b1b72ea5-3e10-43fc-965c-07368ee754db",
        "type": "collection",
        "entry": [ {
          "fullUrl": "1ee9e753-0358-49d4-a1f4-18bcf7d4e987",
          "resource": {
            "resourceType": "List",
            "id": "1ee9e753-0358-49d4-a1f4-18bcf7d4e987",
            "title": "numerator",
            "entry": [ {
              "item": {
                "reference": "numer-EXM349-FHIR3-4"
              }
            } ]
          }
        }, {
          "fullUrl": "Encounter/numer-EXM349-FHIR3-2",
          "resource": {
            "resourceType": "Encounter",
            "id": "numer-EXM349-FHIR3-2",
            "meta": {
              "profile": [ "http://hl7.org/fhir/us/core/StructureDefinition/us-core-encounter" ]
            },
            "status": "finished",
            "type": [ {
              "coding": [ {
                "system": "http://www.ama-assn.org/go/cpt",
                "code": "99386",
                "display": "Initial comprehensive preventive medicine evaluation and management of an individual including an age and gender appropriate history, examination, counseling/anticipatory guidance/risk factor reduction interventions, and the ordering of laboratory/diagnostic procedures, new patient; 40-64 years"
              } ]
            } ],
            "subject": {
              "reference": "Patient/numer-EXM349-FHIR3"
            },
            "period": {
              "start": "2019-08-21T00:00:00-06:00",
              "end": "2019-12-19T08:15:00-07:00"
            }
          }
        }, {
          "fullUrl": "Observation/numer-EXM349-FHIR3-4",
          "resource": {
            "resourceType": "Observation",
            "id": "numer-EXM349-FHIR3-4",
            "meta": { },
            "status": "final",
            "code": {
              "coding": [ {
                "system": "http://loinc.org",
                "code": "10901-7",
                "display": "HIV 2 gp125 Ab [Presence] in Serum by Immunoblot"
              } ]
            },
            "subject": {
              "reference": "Patient/numer-EXM349-FHIR3"
            },
            "effectiveDateTime": "2019-10-21T00:00:00-06:00",
            "valueBoolean": true
          }
        }, {
          "fullUrl": "Patient/numer-EXM349-FHIR3",
          "resource": {
            "resourceType": "Patient",
            "id": "numer-EXM349-FHIR3",
            "meta": {
              "profile": [ "http://hl7.org/fhir/us/core/StructureDefinition/us-core-patient" ]
            },
            "extension": [ {
              "url": "http://hl7.org/fhir/us/core/StructureDefinition/us-core-race",
              "extension": [ {
                "url": "ombCategory",
                "valueCoding": {
                  "system": "urn:oid:2.16.840.1.113883.6.238",
                  "code": "2106-3",
                  "display": "White"
                }
              } ]
            }, {
              "url": "http://hl7.org/fhir/us/core/StructureDefinition/us-core-ethnicity",
              "extension": [ {
                "url": "ombCategory",
                "valueCoding": {
                  "system": "urn:oid:2.16.840.1.113883.6.238",
                  "code": "2186-5",
                  "display": "Not Hispanic or Latino"
                }
              } ]
            } ],
            "identifier": [ {
              "use": "usual",
              "type": {
                "coding": [ {
                  "system": "http://terminology.hl7.org/CodeSystem/v2-0203",
                  "code": "MR",
                  "display": "Medical Record Number"
                } ]
              },
              "system": "http://hospital.smarthealthit.org",
              "value": "9999999911"
            } ],
            "name": [ {
              "family": "Jones",
              "given": [ "Louise" ]
            } ],
            "gender": "female",
            "birthDate": "1995-11-21"
          }
        }, {
          "fullUrl": "e6178a0d-40d9-4b85-9651-8b119acffc96",
          "resource": {
            "resourceType": "List",
            "id": "e6178a0d-40d9-4b85-9651-8b119acffc96",
            "title": "initial-population",
            "entry": [ {
              "item": {
                "reference": "numer-EXM349-FHIR3-2"
              }
            }, {
              "item": {
                "reference": "numer-EXM349-FHIR3"
              }
            } ]
          }
        } ]
      } ],
      "status": "complete",
      "type": "individual",
      "measure": {
        "reference": "Measure/measure-EXM349-FHIR3-2.9.000"
      },
      "patient": {
        "reference": "Patient/numer-EXM349-FHIR3"
      },
      "period": {
        "start": "2019-01-01T00:00:00-07:00",
        "end": "2019-12-31T00:00:00-07:00"
      },
      "group": [ {
        "identifier": {
          "value": "group-1"
        },
        "population": [ {
          "identifier": {
            "value": "initial-population-identifier"
          },
          "code": {
            "coding": [ {
              "system": "http://terminology.hl7.org/CodeSystem/measure-population",
              "code": "initial-population",
              "display": "Initial Population"
            } ]
          },
          "count": 1
        }, {
          "identifier": {
            "value": "numerator-identifier"
          },
          "code": {
            "coding": [ {
              "system": "http://terminology.hl7.org/CodeSystem/measure-population",
              "code": "numerator",
              "display": "Numerator"
            } ]
          },
          "count": 1
        }, {
          "identifier": {
            "value": "denominator-identifier"
          },
          "code": {
            "coding": [ {
              "system": "http://terminology.hl7.org/CodeSystem/measure-population",
              "code": "denominator",
              "display": "Denominator"
            } ]
          },
          "count": 1
        }, {
          "identifier": {
            "value": "denominator-exclusions-identifier"
          },
          "code": {
            "coding": [ {
              "system": "http://terminology.hl7.org/CodeSystem/measure-population",
              "code": "denominator-exclusion",
              "display": "Denominator Exclusion"
            } ]
          },
          "count": 0
        } ],
        "measureScore": 1.0
      } ],
      "evaluatedResources": {
        "reference": "#b1b72ea5-3e10-43fc-965c-07368ee754db"
      }
    },
    "request": {
      "method": "PUT",
      "url": "MeasureReport/measurereport-numer-EXM349-FHIR3"
    }
  }, {
    "resource": {
      "resourceType": "Encounter",
      "id": "numer-EXM349-FHIR3-2",
      "meta": {
        "profile": [ "http://hl7.org/fhir/us/core/StructureDefinition/us-core-encounter" ]
      },
      "status": "finished",
      "type": [ {
        "coding": [ {
          "system": "http://www.ama-assn.org/go/cpt",
          "code": "99386",
          "display": "Initial comprehensive preventive medicine evaluation and management of an individual including an age and gender appropriate history, examination, counseling/anticipatory guidance/risk factor reduction interventions, and the ordering of laboratory/diagnostic procedures, new patient; 40-64 years"
        } ]
      } ],
      "subject": {
        "reference": "Patient/numer-EXM349-FHIR3"
      },
      "period": {
        "start": "2019-08-21T00:00:00-06:00",
        "end": "2019-12-19T08:15:00-07:00"
      }
    },
    "request": {
      "method": "PUT",
      "url": "Encounter/numer-EXM349-FHIR3-2"
    }
  }, {
    "resource": {
      "resourceType": "Observation",
      "id": "numer-EXM349-FHIR3-4",
      "meta": {
        "profile": [ "http://www.http://hl7.org/fhir/FHIR3/observation" ]
      },
      "status": "final",
      "code": {
        "coding": [ {
          "system": "http://loinc.org",
          "code": "10901-7",
          "display": "HIV 2 gp125 Ab [Presence] in Serum by Immunoblot"
        } ]
      },
      "subject": {
        "reference": "Patient/numer-EXM349-FHIR3"
      },
      "effectiveDateTime": "2019-10-21T00:00:00-06:00",
      "valueBoolean": true
    },
    "request": {
      "method": "PUT",
      "url": "Observation/numer-EXM349-FHIR3-4"
    }
  }, {
    "resource": {
      "resourceType": "Library",
      "id": "library-EXM349-FHIR3-2.9.000",
      "text": {
        "status": "generated",
        "div": "<div xmlns=\"http://www.w3.org/1999/xhtml\"><table class=\"grid dict\"><tr><th scope=\"row\"><b>Id: </b></th><td style=\"padding-left: 25px; padding-right: 25px;\">library-EXM349-FHIR3-2.9.000</td></tr><tr><th scope=\"row\"><b>Type: </b></th><td style=\"padding-right: 25px;\"> Logic Library </td></tr><tr><th scope=\"row\"><b>Version: </b></th><td style=\"padding-left: 25px; padding-right: 25px;\">2.9.000</td></tr><tr><th scope=\"row\"><b>Status: </b></th><td style=\"padding-left: 25px; padding-right: 25px;\">active</td></tr><tr style=\"vertical-align: top;\"><th rowspan=\"3\" scope=\"row\"><b>Related: </b></th><td style=\"padding-left: 25px; padding-right: 25px;\"><p style=\"margin-bottom: 5px;\"><b>type: </b><span>depends-on</span></p><p style=\"margin-bottom: 5px;\"><b>Resource: </b><br/><span><span style=\"padding-left: 25px;\"><b>reference: </b><span>Library/library-MATGlobalCommonFunctions-FHIR3-2.0.000</span></span></span></p></td></tr><tr style=\"vertical-align: top;\"><td style=\"padding-left: 25px; padding-right: 25px;\"><p style=\"margin-bottom: 5px;\"><b>type: </b><span>depends-on</span></p><p style=\"margin-bottom: 5px;\"><b>Resource: </b><br/><span><span style=\"padding-left: 25px;\"><b>reference: </b><span>Library/library-FHIRHelpers-3.0.0</span></span></span></p></td></tr><tr style=\"vertical-align: top;\"><td style=\"padding-left: 25px; padding-right: 25px;\"><p style=\"margin-bottom: 5px;\"><b>type: </b><span>depends-on</span></p><p style=\"margin-bottom: 5px;\"><b>Resource: </b><br/><span><span style=\"padding-left: 25px;\"><b>reference: </b><span>Library/library-SupplementalDataElements-FHIR3-1.0.0</span></span></span></p></td></tr><tr style=\"vertical-align: top;\"><th rowspan=\"8\" scope=\"row\"><b>Data Requirements: </b></th><td style=\"padding-left: 25px; padding-right: 25px;\"><div><p style=\"margin-bottom: 5px;\"><b>type: </b><span>Encounter</span></p><p style=\"margin-bottom: 5px;\"><b>code filter:</b><br/><span style=\"padding-left: 25px;\"><b>path: </b><span>type</span></span><br/><span style=\"padding-left: 25px;\"><b>valueset: </b><span>http://cts.nlm.nih.gov/fhir/ValueSet/2.16.840.1.113883.3.464.1003.101.12.1022</span></span></p></div></td></tr><tr style=\"vertical-align: top;\"><td style=\"padding-left: 25px; padding-right: 25px;\"><div><p style=\"margin-bottom: 5px;\"><b>type: </b><span>Encounter</span></p><p style=\"margin-bottom: 5px;\"><b>code filter:</b><br/><span style=\"padding-left: 25px;\"><b>path: </b><span>type</span></span><br/><span style=\"padding-left: 25px;\"><b>valueset: </b><span>http://cts.nlm.nih.gov/fhir/ValueSet/2.16.840.1.113883.3.464.1003.101.12.1023</span></span></p></div></td></tr><tr style=\"vertical-align: top;\"><td style=\"padding-left: 25px; padding-right: 25px;\"><div><p style=\"margin-bottom: 5px;\"><b>type: </b><span>Encounter</span></p><p style=\"margin-bottom: 5px;\"><b>code filter:</b><br/><span style=\"padding-left: 25px;\"><b>path: </b><span>type</span></span><br/><span style=\"padding-left: 25px;\"><b>valueset: </b><span>http://cts.nlm.nih.gov/fhir/ValueSet/2.16.840.1.113883.3.464.1003.101.12.1024</span></span></p></div></td></tr><tr style=\"vertical-align: top;\"><td style=\"padding-left: 25px; padding-right: 25px;\"><div><p style=\"margin-bottom: 5px;\"><b>type: </b><span>Encounter</span></p><p style=\"margin-bottom: 5px;\"><b>code filter:</b><br/><span style=\"padding-left: 25px;\"><b>path: </b><span>type</span></span><br/><span style=\"padding-left: 25px;\"><b>valueset: </b><span>http://cts.nlm.nih.gov/fhir/ValueSet/2.16.840.1.113883.3.464.1003.101.12.1025</span></span></p></div></td></tr><tr style=\"vertical-align: top;\"><td style=\"padding-left: 25px; padding-right: 25px;\"><div><p style=\"margin-bottom: 5px;\"><b>type: </b><span>Encounter</span></p><p style=\"margin-bottom: 5px;\"><b>code filter:</b><br/><span style=\"padding-left: 25px;\"><b>path: </b><span>type</span></span><br/><span style=\"padding-left: 25px;\"><b>valueset: </b><span>http://cts.nlm.nih.gov/fhir/ValueSet/2.16.840.1.113883.3.464.1003.101.12.1001</span></span></p></div></td></tr><tr style=\"vertical-align: top;\"><td style=\"padding-left: 25px; padding-right: 25px;\"><div><p style=\"margin-bottom: 5px;\"><b>type: </b><span>Condition</span></p><p style=\"margin-bottom: 5px;\"><b>code filter:</b><br/><span style=\"padding-left: 25px;\"><b>path: </b><span>code</span></span><br/><span style=\"padding-left: 25px;\"><b>valueset: </b><span>http://cts.nlm.nih.gov/fhir/ValueSet/2.16.840.1.113762.1.4.1056.54</span></span></p></div></td></tr><tr style=\"vertical-align: top;\"><td style=\"padding-left: 25px; padding-right: 25px;\"><div><p style=\"margin-bottom: 5px;\"><b>type: </b><span>Observation</span></p><p style=\"margin-bottom: 5px;\"><b>code filter:</b><br/><span style=\"padding-left: 25px;\"><b>path: </b><span>code</span></span><br/><span style=\"padding-left: 25px;\"><b>valueset: </b><span>http://cts.nlm.nih.gov/fhir/ValueSet/2.16.840.1.113762.1.4.1056.50</span></span></p></div></td></tr><tr style=\"vertical-align: top;\"><td style=\"padding-left: 25px; padding-right: 25px;\"><div><p style=\"margin-bottom: 5px;\"><b>type: </b><span>Observation</span></p><p style=\"margin-bottom: 5px;\"><b>code filter:</b><br/><span style=\"padding-left: 25px;\"><b>path: </b><span>code</span></span></p></div></td></tr><tr style=\"vertical-align: top;\"><th scope=\"row\"><b>Content: </b></th><td style=\"padding-left: 25px; padding-right: 25px;\"><b>type: </b><span>text/cql</span></td></tr><tr><td colspan=\"2\" style=\"padding-left: 25px; padding-right: 25px;\"><pre><code class=\"language-cql\">library EXM349_FHIR3 version '2.9.000'\n\n/*\nBased on CMS349v2 - HIV Screening\n*/\n\nusing FHIR version '3.0.0'\n\ninclude MATGlobalCommonFunctions_FHIR3 version '2.0.000' called Global\ninclude FHIRHelpers version '3.0.0' called FHIRHelpers\ninclude SupplementalDataElements_FHIR3 version '1.0.0' called SDE\n\ncodesystem &quot;LOINC&quot;: 'http://loinc.org'\n\nvalueset &quot;Conditions Due To Human Immunodeficiency Virus (HIV)&quot;: 'http://cts.nlm.nih.gov/fhir/ValueSet/2.16.840.1.113762.1.4.1056.54'\nvalueset &quot;Ethnicity&quot;: 'http://cts.nlm.nih.gov/fhir/ValueSet/2.16.840.1.114222.4.11.837'\nvalueset &quot;Human Immunodeficiency Virus (HIV) Laboratory Test Codes (Ab and Ag)&quot;: 'http://cts.nlm.nih.gov/fhir/ValueSet/2.16.840.1.113762.1.4.1056.50'\nvalueset &quot;Office Visit&quot;: 'http://cts.nlm.nih.gov/fhir/ValueSet/2.16.840.1.113883.3.464.1003.101.12.1001'\nvalueset &quot;ONC Administrative Sex&quot;: 'http://cts.nlm.nih.gov/fhir/ValueSet/2.16.840.1.113762.1.4.1'\nvalueset &quot;Payer&quot;: 'http://cts.nlm.nih.gov/fhir/ValueSet/2.16.840.1.114222.4.11.3591'\nvalueset &quot;Preventive Care Services - Established Office Visit, 18 and Up&quot;: 'http://cts.nlm.nih.gov/fhir/ValueSet/2.16.840.1.113883.3.464.1003.101.12.1025'\nvalueset &quot;Preventive Care Services, Initial Office Visit, 0 to 17&quot;: 'http://cts.nlm.nih.gov/fhir/ValueSet/2.16.840.1.113883.3.464.1003.101.12.1022'\nvalueset &quot;Preventive Care Services-Initial Office Visit, 18 and Up&quot;: 'http://cts.nlm.nih.gov/fhir/ValueSet/2.16.840.1.113883.3.464.1003.101.12.1023'\nvalueset &quot;Preventive Care, Established Office Visit, 0 to 17&quot;: 'http://cts.nlm.nih.gov/fhir/ValueSet/2.16.840.1.113883.3.464.1003.101.12.1024'\nvalueset &quot;Race&quot;: 'http://cts.nlm.nih.gov/fhir/ValueSet/2.16.840.1.114222.4.11.836'\n\ncode &quot;HIV 1 and 2 tests - Meaningful Use set&quot;: '75622-1' from &quot;LOINC&quot; display 'HIV 1 and 2 tests - Meaningful Use set'\n\nparameter &quot;Measurement Period&quot; Interval&lt;DateTime&gt; default Interval[@2019-01-01T00:00:00.0, @2020-01-01T00:00:00.0)\n\ncontext Patient\n\ndefine &quot;SDE Ethnicity&quot;:\n\t SDE.&quot;SDE Ethnicity&quot;\n\ndefine &quot;SDE Payer&quot;:\n\tSDE.&quot;SDE Payer&quot;\n\ndefine &quot;SDE Race&quot;:\n\tSDE.&quot;SDE Race&quot;\n\ndefine &quot;SDE Sex&quot;:\n\tSDE.&quot;SDE Sex&quot;\n\ndefine &quot;Qualifying Encounters&quot;:\n\t( [Encounter: &quot;Preventive Care Services, Initial Office Visit, 0 to 17&quot;]\n\t\tunion [Encounter: &quot;Preventive Care Services-Initial Office Visit, 18 and Up&quot;]\n\t\tunion [Encounter: &quot;Preventive Care, Established Office Visit, 0 to 17&quot;]\n\t\tunion [Encounter: &quot;Preventive Care Services - Established Office Visit, 18 and Up&quot;]\n\t\tunion [Encounter: &quot;Office Visit&quot;] ) ValidEncounter\n\t\twhere ValidEncounter.status = 'finished'\n\t\tand ValidEncounter.period during &quot;Measurement Period&quot;\n\ndefine &quot;Denominator&quot;:\n\t&quot;Initial Population&quot;\n\ndefine &quot;Denominator Exclusion&quot;:\n\texists ( [Condition: code in &quot;Conditions Due To Human Immunodeficiency Virus (HIV)&quot;] HIVConditions\n\t\t\twhere HIVConditions.clinicalStatus = 'active'\n\t\t\tand HIVConditions.verificationStatus = 'confirmed'\n\t\t\tand (HIVConditions.onset as dateTime) before start of &quot;Measurement Period&quot;\n\t)\n\ndefine &quot;Numerator&quot;:\n\texists ( &quot;HIV Test Performed&quot; )\n\ndefine &quot;HIV Test Performed&quot;:\n\t( [Observation: &quot;Human Immunodeficiency Virus (HIV) Laboratory Test Codes (Ab and Ag)&quot;]\n\t\tunion [Observation: &quot;HIV 1 and 2 tests - Meaningful Use set&quot;] ) HIVTest\n\t\twhere (\n\t\t\t\t( Global.&quot;CalendarAgeInYearsAt&quot;(FHIRHelpers.ToDate(Patient.birthDate), HIVTest.effective as dateTime)&gt;= 15\n\t\t\t \t\tor Global.&quot;CalendarAgeInYearsAt&quot;(FHIRHelpers.ToDate(Patient.birthDate), start of HIVTest.effective)&gt;= 15)\n\t\t\t\t\tand  ( Global.&quot;CalendarAgeInYearsAt&quot;(FHIRHelpers.ToDate(Patient.birthDate), HIVTest.effective as dateTime)&lt; 66 )\n\t\t\t\t\t\tor Global.&quot;CalendarAgeInYearsAt&quot;(FHIRHelpers.ToDate(Patient.birthDate), start of HIVTest.effective)&lt; 66)\n\n\t\t\tand HIVTest.status in {'final', 'amended', 'corrected', 'preliminary'}\n\t\t\tand (\n\t\t\t\tHIVTest.effective starts before end of &quot;Measurement Period&quot;\n\t\t\t\t\tor HIVTest.effective as dateTime before end of &quot;Measurement Period&quot;\n\t\t\t)\n\ndefine &quot;Initial Population&quot;:\n Global.&quot;CalendarAgeInYearsAt&quot;(FHIRHelpers.ToDate(Patient.birthDate), start of &quot;Measurement Period&quot;)&gt;= 15\n\t\tand Global.&quot;CalendarAgeInYearsAt&quot;(FHIRHelpers.ToDate(Patient.birthDate), start of &quot;Measurement Period&quot;)&lt; 66\n\t\tand exists &quot;Qualifying Encounters&quot;\n</code></pre>\n                    \n                    \n                </td>\n            </tr>\n        \n    </table>\n</div>"
      },
      "extension": [ {
        "url": "http://hl7.org/fhir/us/cqfmeasures/StructureDefinition/cqfm-softwaresystem",
        "valueReference": {
          "reference": "cqf-tooling"
        }
      } ],
      "version": "2.9.000",
      "name": "EXM349_FHIR3",
      "status": "active",
      "experimental": true,
      "type": {
        "coding": [ {
          "system": "http://hl7.org/fhir/codesystem-library-type.html",
          "code": "logic-library"
        } ]
      },
      "content": [ {
        "contentType": "text/cql",
        "data": ""
      } ]
    },
    "request": {
      "method": "PUT",
      "url": "Library/library-EXM349-FHIR3-2.9.000"
    }
  }, {
    "resource": {
      "resourceType": "Patient",
      "id": "numer-EXM349-FHIR3",
      "meta": {
        "profile": [ "http://hl7.org/fhir/us/core/StructureDefinition/us-core-patient" ]
      },
      "extension": [ {
        "url": "http://hl7.org/fhir/us/core/StructureDefinition/us-core-race",
        "extension": [ {
          "url": "ombCategory",
          "valueCoding": {
            "system": "urn:oid:2.16.840.1.113883.6.238",
            "code": "2106-3",
            "display": "White"
          }
        } ]
      }, {
        "url": "http://hl7.org/fhir/us/core/StructureDefinition/us-core-ethnicity",
        "extension": [ {
          "url": "ombCategory",
          "valueCoding": {
            "system": "urn:oid:2.16.840.1.113883.6.238",
            "code": "2186-5",
            "display": "Not Hispanic or Latino"
          }
        } ]
      } ],
      "identifier": [ {
        "use": "usual",
        "type": {
          "coding": [ {
            "system": "http://terminology.hl7.org/CodeSystem/v2-0203",
            "code": "MR",
            "display": "Medical Record Number"
          } ]
        },
        "system": "http://hospital.smarthealthit.org",
        "value": "9999999911"
      } ],
      "name": [ {
        "family": "Jones",
        "given": [ "Louise" ]
      } ],
      "gender": "female",
      "birthDate": "1995-11-21"
    },
    "request": {
      "method": "PUT",
      "url": "Patient/numer-EXM349-FHIR3"
    }
  }, {
    "resource": {
      "resourceType": "MeasureReport",
      "id": "measurereport-denom-EXM349-FHIR3",
      "contained": [ {
        "resourceType": "Bundle",
        "id": "85917cdb-7f1d-48a8-beb4-a556e0ccc53b",
        "type": "collection",
        "entry": [ {
          "fullUrl": "Patient/denom-EXM349-FHIR3",
          "resource": {
            "resourceType": "Patient",
            "id": "denom-EXM349-FHIR3",
            "meta": {
              "profile": [ "http://hl7.org/fhir/us/core/StructureDefinition/us-core-patient" ]
            },
            "extension": [ {
              "url": "http://hl7.org/fhir/us/core/StructureDefinition/us-core-race",
              "extension": [ {
                "url": "ombCategory",
                "valueCoding": {
                  "system": "urn:oid:2.16.840.1.113883.6.238",
                  "code": "2054-5",
                  "display": "Black or African American"
                }
              } ]
            }, {
              "url": "http://hl7.org/fhir/us/core/StructureDefinition/us-core-ethnicity",
              "extension": [ {
                "url": "ombCategory",
                "valueCoding": {
                  "system": "urn:oid:2.16.840.1.113883.6.238",
                  "code": "2135-2",
                  "display": "Hispanic or Latino"
                }
              } ]
            } ],
            "identifier": [ {
              "use": "usual",
              "type": {
                "coding": [ {
                  "system": "http://terminology.hl7.org/CodeSystem/v2-0203",
                  "code": "MR",
                  "display": "Medical Record Number"
                } ]
              },
              "system": "http://hospital.smarthealthit.org",
              "value": "9999999910"
            } ],
            "name": [ {
              "family": "Jones",
              "given": [ "Rick" ]
            } ],
            "gender": "male",
            "birthDate": "1955-11-05"
          }
        }, {
          "fullUrl": "Encounter/denom-EXM349-FHIR3-2",
          "resource": {
            "resourceType": "Encounter",
            "id": "denom-EXM349-FHIR3-2",
            "meta": {
              "profile": [ "http://hl7.org/fhir/us/core/StructureDefinition/us-core-encounter" ]
            },
            "status": "finished",
            "type": [ {
              "coding": [ {
                "system": "http://www.ama-assn.org/go/cpt",
                "code": "99386",
                "display": "Initial comprehensive preventive medicine evaluation and management of an individual including an age and gender appropriate history, examination, counseling/anticipatory guidance/risk factor reduction interventions, and the ordering of laboratory/diagnostic procedures, new patient; 40-64 years"
              } ]
            } ],
            "subject": {
              "reference": "Patient/denom-EXM349-FHIR3"
            },
            "period": {
              "start": "2019-08-21T00:00:00-06:00",
              "end": "2019-12-19T08:15:00-07:00"
            }
          }
        }, {
          "fullUrl": "96712794-8dff-4596-a1b9-413947e69f65",
          "resource": {
            "resourceType": "List",
            "id": "96712794-8dff-4596-a1b9-413947e69f65",
            "title": "initial-population",
            "entry": [ {
              "item": {
                "reference": "denom-EXM349-FHIR3"
              }
            }, {
              "item": {
                "reference": "denom-EXM349-FHIR3-2"
              }
            } ]
          }
        } ]
      } ],
      "status": "complete",
      "type": "individual",
      "measure": {
        "reference": "Measure/measure-EXM349-FHIR3-2.9.000"
      },
      "patient": {
        "reference": "Patient/denom-EXM349-FHIR3"
      },
      "period": {
        "start": "2019-01-01T00:00:00-07:00",
        "end": "2019-12-31T00:00:00-07:00"
      },
      "group": [ {
        "identifier": {
          "value": "group-1"
        },
        "population": [ {
          "identifier": {
            "value": "initial-population-identifier"
          },
          "code": {
            "coding": [ {
              "system": "http://terminology.hl7.org/CodeSystem/measure-population",
              "code": "initial-population",
              "display": "Initial Population"
            } ]
          },
          "count": 1
        }, {
          "identifier": {
            "value": "numerator-identifier"
          },
          "code": {
            "coding": [ {
              "system": "http://terminology.hl7.org/CodeSystem/measure-population",
              "code": "numerator",
              "display": "Numerator"
            } ]
          },
          "count": 0
        }, {
          "identifier": {
            "value": "denominator-identifier"
          },
          "code": {
            "coding": [ {
              "system": "http://terminology.hl7.org/CodeSystem/measure-population",
              "code": "denominator",
              "display": "Denominator"
            } ]
          },
          "count": 1
        }, {
          "identifier": {
            "value": "denominator-exclusions-identifier"
          },
          "code": {
            "coding": [ {
              "system": "http://terminology.hl7.org/CodeSystem/measure-population",
              "code": "denominator-exclusion",
              "display": "Denominator Exclusion"
            } ]
          },
          "count": 0
        } ],
        "measureScore": 0.0
      } ],
      "evaluatedResources": {
        "reference": "#85917cdb-7f1d-48a8-beb4-a556e0ccc53b"
      }
    },
    "request": {
      "method": "PUT",
      "url": "MeasureReport/measurereport-denom-EXM349-FHIR3"
    }
  }, {
    "resource": {
      "resourceType": "Bundle",
      "id": "tests-Encounter-bundle",
      "type": "transaction",
      "entry": [ {
        "resource": {
          "resourceType": "Encounter",
          "id": "numer-EXM349-FHIR3-2",
          "meta": {
            "profile": [ "http://hl7.org/fhir/us/core/StructureDefinition/us-core-encounter" ]
          },
          "status": "finished",
          "type": [ {
            "coding": [ {
              "system": "http://www.ama-assn.org/go/cpt",
              "code": "99386",
              "display": "Initial comprehensive preventive medicine evaluation and management of an individual including an age and gender appropriate history, examination, counseling/anticipatory guidance/risk factor reduction interventions, and the ordering of laboratory/diagnostic procedures, new patient; 40-64 years"
            } ]
          } ],
          "subject": {
            "reference": "Patient/numer-EXM349-FHIR3"
          },
          "period": {
            "start": "2019-08-21T00:00:00-06:00",
            "end": "2019-12-19T08:15:00-07:00"
          }
        },
        "request": {
          "method": "PUT",
          "url": "Encounter/numer-EXM349-FHIR3-2"
        }
      } ]
    },
    "request": {
      "method": "PUT",
      "url": "tests-Encounter-bundle"
    }
  }, {
    "resource": {
      "resourceType": "Encounter",
      "id": "denom-EXM349-FHIR3-2",
      "meta": {
        "profile": [ "http://hl7.org/fhir/us/core/StructureDefinition/us-core-encounter" ]
      },
      "status": "finished",
      "type": [ {
        "coding": [ {
          "system": "http://www.ama-assn.org/go/cpt",
          "code": "99386",
          "display": "Initial comprehensive preventive medicine evaluation and management of an individual including an age and gender appropriate history, examination, counseling/anticipatory guidance/risk factor reduction interventions, and the ordering of laboratory/diagnostic procedures, new patient; 40-64 years"
        } ]
      } ],
      "subject": {
        "reference": "Patient/denom-EXM349-FHIR3"
      },
      "period": {
        "start": "2019-08-21T00:00:00-06:00",
        "end": "2019-12-19T08:15:00-07:00"
      }
    },
    "request": {
      "method": "PUT",
      "url": "Encounter/denom-EXM349-FHIR3-2"
    }
  }, {
    "resource": {
      "resourceType": "Patient",
      "id": "denom-EXM349-FHIR3",
      "meta": {
        "profile": [ "http://hl7.org/fhir/us/core/StructureDefinition/us-core-patient" ]
      },
      "extension": [ {
        "url": "http://hl7.org/fhir/us/core/StructureDefinition/us-core-race",
        "extension": [ {
          "url": "ombCategory",
          "valueCoding": {
            "system": "urn:oid:2.16.840.1.113883.6.238",
            "code": "2054-5",
            "display": "Black or African American"
          }
        } ]
      }, {
        "url": "http://hl7.org/fhir/us/core/StructureDefinition/us-core-ethnicity",
        "extension": [ {
          "url": "ombCategory",
          "valueCoding": {
            "system": "urn:oid:2.16.840.1.113883.6.238",
            "code": "2135-2",
            "display": "Hispanic or Latino"
          }
        } ]
      } ],
      "identifier": [ {
        "use": "usual",
        "type": {
          "coding": [ {
            "system": "http://terminology.hl7.org/CodeSystem/v2-0203",
            "code": "MR",
            "display": "Medical Record Number"
          } ]
        },
        "system": "http://hospital.smarthealthit.org",
        "value": "9999999910"
      } ],
      "name": [ {
        "family": "Jones",
        "given": [ "Rick" ]
      } ],
      "gender": "male",
      "birthDate": "1955-11-05"
    },
    "request": {
      "method": "PUT",
      "url": "Patient/denom-EXM349-FHIR3"
    }
  }, {
    "resource": {
      "resourceType": "Measure",
      "id": "measure-EXM349-FHIR3-2.9.000",
      "meta": {
        "versionId": "2",
        "lastUpdated": "2019-12-13T06:15:57.263+00:00",
        "profile": [ "http://hl7.org/fhir/us/cqfmeasures/StructureDefinition/proportion-measure-cqfm" ]
      },
      "text": {
        "status": "generated",
        "div": "<div xmlns=\"http://www.w3.org/1999/xhtml\"><table style=\"width: 60%; border-bottom: none;\" class=\"header_table\">          <!-- <tr th:if=\"${resource.hasId()}\" style=\"vertical-align: top;\"><th style=\"background-color:#656565; width:20%\" scope=\"row\"><span class=\"td_label\">Id: </span></th><td style=\"width:80%\" colspan=\"3\"  th:narrative=\"${resource.id}\"></td></tr> --><tr style=\"vertical-align: top;\"><td scope=\"row\" style=\"background-color:#656565; width:20%\"><span class=\"td_label\">Measure Title</span></td><td colspan=\"1\" style=\"width:60%\"><h1 style=\"font-size:10px\">HIV Screening</h1></td><td scope=\"row\" style=\"background-color:#656565; width:10%\"><span class=\"td_label\">Measure ID</span></td><td colspan=\"1\" style=\"width:10%\"><h1 style=\"font-size:10px\">EXM349</h1></td></tr>          <!-- <th:block th:each=\"ident, iter : ${resource.identifier}\"><tr th:if=\"${ident.type.coding[0].code == 'CMS'}\" style=\"vertical-align: top;\"><td style=\"background-color:#656565; width:20%\" scope=\"row\"><span class=\"td_label\">eCQM Identifier (Measure Authoring Tool)</span></td><td style=\"width:30%\" th:narrative=\"${ident.value}\"></td><td style=\"background-color:#656565; width:20%\" scope=\"row\"><span class=\"td_label\">eCQM Version number</span></td><td style=\"width:30%\" th:narrative=\"${resource.version}\"></td></tr></th:block><th:block th:each=\"ident, iter : ${resource.identifier}\"><tr th:if=\"${ident.type.coding[0].code == 'NQF'}\" style=\"vertical-align: top;\"><td style=\"background-color:#656565; width:20%\" scope=\"row\"><span class=\"td_label\">NQF Number</span></td><td style=\"width:30%\" th:narrative=\"${ident.value}\"></td><td style=\"background-color:#656565; width:20%\" scope=\"row\"><span class=\"td_label\">GUID</span></td><td style=\"width:30%\" th:narrative=\"${resource.url}\"></td></tr></th:block> --><tr style=\"vertical-align: top;\"><td scope=\"row\" style=\"background-color:#656565; width:20%\"><span class=\"td_label\">Description</span></td><td colspan=\"3\" style=\"width:80%\"><div style=\"width:660px;overflow-x:hidden;overflow-y:auto\"><pre><p>Percentage of patients aged 15-65 at the start of the measurement period who were between 15-65 years old when tested for HIV</p>\n</pre>\n                </div>\n            </td>\n        </tr>\n        <tr>\n            <td scope=\"row\" style=\"background-color:#656565; width:20%\"><span class=\"td_label\">Measurement Period</span></td>\n            <td colspan=\"3\" style=\"width:80%\">January 1 - December 31</td>\n        </tr>\n                  <!-- <tr>\n            <td style=\"background-color:#656565; width:20%\" scope=\"row\"><span class=\"td_label\">Measure Steward</span></td>\n            <td style=\"width:80%\" colspan=\"3\" th:narrative=\"${resource.publisher}\"></td>\n        </tr>\n        <tr>\n            <td style=\"background-color:#656565; width:20%\" scope=\"row\"><span class=\"td_label\">Measure Developer</span></td>\n            <td style=\"width:80%\" colspan=\"3\" th:narrative=\"${resource.publisher}\"></td>\n        </tr> -->\n                  <!-- <tr th:if=\"${resource.hasDisclaimer()}\">\n            <td style=\"background-color:#656565; width:20%\" scope=\"row\"><span class=\"td_label\">Disclaimer</span></td>\n            <td style=\"width:80%\" colspan=\"3\">\n                <div style=\"width:660px;overflow-x:hidden;overflow-y:auto\">\n                    <pre th:text=\"${resource.disclaimer}\"></pre>\n                </div>\n            </td>\n        </tr> -->\n        <tr>\n            <td scope=\"row\" style=\"background-color:#656565; width:20%\"><span class=\"td_label\">Copyright and Disclaimer Notice</span></td>\n            <td colspan=\"3\" style=\"width:80%\">\n                <div style=\"width:660px;overflow-x:hidden;overflow-y:auto\">\n                    <pre>The performance Measure is not a clinical guideline and does not establish a standard of medical care, and has not been tested for all potential applications. THE MEASURE AND SPECIFICATIONS ARE PROVIDED &quot;AS IS&quot; WITHOUT WARRANTY OF ANY KIND.\n \nDue to technical limitations, registered trademarks are indicated by (R) or [R] and unregistered trademarks are indicated by (TM) or [TM].</pre>\n                    <br/>\n                    <div>This Physician Performance Measure (Measure) and related data specifications were developed by the National Committee for Quality Assurance (NCQA). NCQA is not responsible for any use of the Measure. NCQA makes no representations, warranties, or endorsement about the quality of any organization or physician that uses or reports performance measures and NCQA has no liability to anyone who relies on such measures or specifications. NCQA holds a copyright in the Measure. The Measure can be reproduced and distributed, without modification, for noncommercial purposes (eg, use by healthcare providers in connection with their practices) without obtaining approval from NCQA. Commercial use is defined as the sale, licensing, or distribution of the Measure for commercial gain, or incorporation of the Measure into a product or service that is sold, licensed or distributed for commercial gain. All commercial uses or requests for modification must be approved by NCQA and are subject to a license at the discretion of NCQA. (C) 2012-2017 National Committee for Quality Assurance. All Rights Reserved. %26lt;br%26gt; Limited proprietary coding is contained in the Measure specifications for user convenience. Users of proprietary code sets should obtain all necessary licenses from the owners of the code sets. NCQA disclaims all liability for use or accuracy of any third party codes contained in the specifications. %26lt;br%26gt; CPT(R) contained in the Measure specifications is copyright 2004-2017 American Medical Association. LOINC(R) copyright 2004-2017 Regenstrief Institute, Inc. This material contains SNOMED Clinical Terms(R) (SNOMED CT[R] ) copyright 2004-2017 International Health Terminology Standards Development Organisation. ICD-10 copyright 2017 World Health Organization. All Rights Reserved.</div>\n                </div>\n            </td>\n        </tr>\n        <tr>\n            <td scope=\"row\" style=\"background-color:#656565; width:20%\"><span class=\"td_label\">Clinical Recommendation Statement</span></td>\n            <td colspan=\"3\" style=\"width:80%\">\n                <div style=\"width:660px;overflow-x:hidden;overflow-y:auto\"><p>The US Preventive Services Task Force recommends that clinicians screen for HIV infection in adolescents and adults aged 15 to 65 years. Younger adolescents and older adults who are at increased risk should also be screened (A Recommendation) (Moyer, 2013).</p>\n<p>Since 2006, the CDC has recommended routine opt-out HIV screening (i.e., patient is notified that testing will be performed unless the patient declines) in healthcare facilities of adolescents and adults 13-64 years of age and HIV diagnostic testing of adolescents and adults with clinical signs or symptoms consistent with HIV infection (Centers for Disease Control and Prevention, 2006).</p>\n</div>\n            </td>\n        </tr>\n        \n            <tr style=\"vertical-align: top;\">\n                <td rowspan=\"14\" scope=\"row\" style=\"background-color:#656565; width:20%\"><span class=\"td_label\">References</span></td>\n                <td colspan=\"3\" style=\"width:80%\">\n                    <div style=\"width:660px;overflow-x:hidden;overflow-y:auto\">\n                        <pre>American Diabetes Association. (2018). 9. Cardiovascular disease and risk management: Standards of medical care in diabetes 2018. Diabetes Care, 41(Suppl. 1), S86-S104.</pre>\n                    </div>\n                </td>\n            </tr>\n        \n        \n            <tr style=\"vertical-align: top;\">\n                \n                <td colspan=\"3\" style=\"width:80%\">\n                    <div style=\"width:660px;overflow-x:hidden;overflow-y:auto\">\n                        <pre>Benjamin, E. J., Blaha, M. J., Chiuve, S. E., et al. (2017). Heart disease and stroke statistics-2017 update: A report from the American Heart Association. Circulation, 135(10), e146-e603.doi: 10.1161/CIR.0000000000000485</pre>\n                    </div>\n                </td>\n            </tr>\n        \n        \n            <tr style=\"vertical-align: top;\">\n                \n                <td colspan=\"3\" style=\"width:80%\">\n                    <div style=\"width:660px;overflow-x:hidden;overflow-y:auto\">\n                        <pre>Centers for Disease Control and Prevention. (2012). Vital signs: Getting blood pressure under control. Retrieved from https://www.cdc.gov/vitalsigns/hypertension/index.html</pre>\n                    </div>\n                </td>\n            </tr>\n        \n        \n            <tr style=\"vertical-align: top;\">\n                \n                <td colspan=\"3\" style=\"width:80%\">\n                    <div style=\"width:660px;overflow-x:hidden;overflow-y:auto\">\n                        <pre>Centers for Disease Control and Prevention. Division for Heart Disease and Stroke Prevention. (2016). High blood pressure fact sheet. Retrieved from https://www.cdc.gov/dhdsp/data_statistics/fact_sheets/fs_bloodpressure.htmhttps://www.cdc.gov/dhdsp/data_statistics/fact_sheets/fs_bloodpressure.htm. </pre>\n                    </div>\n                </td>\n            </tr>\n        \n        \n            <tr style=\"vertical-align: top;\">\n                \n                <td colspan=\"3\" style=\"width:80%\">\n                    <div style=\"width:660px;overflow-x:hidden;overflow-y:auto\">\n                        <pre>Centers for Disease Control and Prevention, National Center for Health Statistics. (2015). Underlying Cause of Death 1999-2013 on CDC WONDER Online Database. Data are from the Multiple Cause of Death Files, 1999-2013, as compiled from data provided by the 57 vital statistics jurisdictions through the Vital Statistics Cooperative Program. Retrieved from http://wonder.cdc.gov/ucd-icd10.html</pre>\n                    </div>\n                </td>\n            </tr>\n        \n        \n            <tr style=\"vertical-align: top;\">\n                \n                <td colspan=\"3\" style=\"width:80%\">\n                    <div style=\"width:660px;overflow-x:hidden;overflow-y:auto\">\n                        <pre>Crim, M. T., Yoon, S. S., Ortiz, E., et al. (2012). National surveillance definitions for hypertension prevalence and control among adults. Circulation: Cardiovascular Quality and Outcomes. 2012, ;5(3), :343-–351. doi: 10.1161/ CIRCOUTCOMES.111.963439.</pre>\n                    </div>\n                </td>\n            </tr>\n        \n        \n            <tr style=\"vertical-align: top;\">\n                \n                <td colspan=\"3\" style=\"width:80%\">\n                    <div style=\"width:660px;overflow-x:hidden;overflow-y:auto\">\n                        <pre>James, P. A., Oparil, S., Carter, B. L., et al (2014). 2014 evidence-based guideline for the management of high blood pressure in adults: Report from the panel members appointed to the Eighth Joint National Committee (JNC8). JAMA. 311(5), 507-520. doi:10.1001/jama.2013.284427</pre>\n                    </div>\n                </td>\n            </tr>\n        \n        \n            <tr style=\"vertical-align: top;\">\n                \n                <td colspan=\"3\" style=\"width:80%\">\n                    <div style=\"width:660px;overflow-x:hidden;overflow-y:auto\">\n                        <pre>Moran, A. E., Odden, M. C., Thanataveerat, A., et al.Tzong KY, Rasmussen PW, Guzman D, Williams L, Bibbins-Domingo K, Coxson PG, Goldman L. (2015). Cost-effectiveness of hypertension therapy according to 2014 guidelines. [published correction appears in N Engl J. Med. 2015;372:1677]. New England Journal of Medicine,. 2015 ;372, :447-–455. doi:  10.1056/NEJMsa1406751. [published correction appears on page 1677] \nFarley TA, Dalal MA, Mostashari F, Frieden TR. Deaths preventable in the US by improvements in the use of clinical preventive services. Am J Prev Med. 2010;38:600-9.</pre>\n                    </div>\n                </td>\n            </tr>\n        \n        \n            <tr style=\"vertical-align: top;\">\n                \n                <td colspan=\"3\" style=\"width:80%\">\n                    <div style=\"width:660px;overflow-x:hidden;overflow-y:auto\">\n                        <pre>Patel, S. A., Winkel, M., Ali, M. K., et al. (2015). Cardiovascular mortality associated with 5 leading risk factors: National and state preventable fractions estimated from survey data. Annals of Internal Medicine, 163(4), :245–253. doi: 10.7326/M14-1753</pre>\n                    </div>\n                </td>\n            </tr>\n        \n        \n            <tr style=\"vertical-align: top;\">\n                \n                <td colspan=\"3\" style=\"width:80%\">\n                    <div style=\"width:660px;overflow-x:hidden;overflow-y:auto\">\n                        <pre>Qaseem, A., Wilt, T. J., Rich, R., et al. (2017). Pharmacologic treatment of hypertension in adults aged 60 years or older to higher versus lower blood pressure targets: A clinical practice guideline from the American College of Physicians and the American Academy of Family Physicians. Annals of Internal Medicine, 166(6), 430-437.</pre>\n                    </div>\n                </td>\n            </tr>\n        \n        \n            <tr style=\"vertical-align: top;\">\n                \n                <td colspan=\"3\" style=\"width:80%\">\n                    <div style=\"width:660px;overflow-x:hidden;overflow-y:auto\">\n                        <pre>SPRINT Research Group,; Wright, J. T., Jr., Williamson,  J. D., et al. (2015). A randomized trial of intensive versus standard blood-pressure control. New England Journal of Medicine, 373(22), 2103–2116.</pre>\n                    </div>\n                </td>\n            </tr>\n        \n        \n            <tr style=\"vertical-align: top;\">\n                \n                <td colspan=\"3\" style=\"width:80%\">\n                    <div style=\"width:660px;overflow-x:hidden;overflow-y:auto\">\n                        <pre>U.S. Preventive Services Task Force. (2015). Screening for high blood pressure in adults: U.S. Preventive Services Task Force recommendation statement. Annals of Internal Medicine, 163(10), 778-787.</pre>\n                    </div>\n                </td>\n            </tr>\n        \n        \n            <tr style=\"vertical-align: top;\">\n                \n                <td colspan=\"3\" style=\"width:80%\">\n                    <div style=\"width:660px;overflow-x:hidden;overflow-y:auto\">\n                        <pre>Whelton, P. K., Carey, R. M., Aronow, W. S., et al. (2017). Guideline for the prevention, detection, evaluation, and management of high blood pressure in adults: A report of the American College of Cardiology/American Heart Association Task Force on Clinical Practice Guidelines. Journal of the American College of Cardiology, . https://doi.org/10.1161/HYP.0000000000000065</pre>\n                    </div>\n                </td>\n            </tr>\n        \n        \n            <tr style=\"vertical-align: top;\">\n                \n                <td colspan=\"3\" style=\"width:80%\">\n                    <div style=\"width:660px;overflow-x:hidden;overflow-y:auto\">\n                        <pre>Yoon, S. S., Fryar, C. D., %26amp; Carroll, M. D. (2015). Hypertension prevalence and control among adults: United States, 2011-2014. NCHS Data Brief No. 220. Hyattsville, MD: National Center for Health Statistics.</pre>\n                    </div>\n                </td>\n            </tr>\n        \n        <tr>\n            <td colspan=\"4\" scope=\"row\" style=\"background-color:#656565; width:100%\"><span class=\"td_label\">Characteristics</span></td>\n        </tr>\n        <tr>\n            <td scope=\"row\" style=\"width:20%\"><span>Scoring</span></td>\n            <td colspan=\"3\" style=\"width:80%\">Proportion</td>\n        </tr>\n                  <!-- <tr th:if=\"${resource.hasCompositeScoring()}\">\n            <td style=\"width:20%\" scope=\"row\"><span class=\"td_label\">Composite Scoring</span></td>\n            <td style=\"width:80%\" colspan=\"3\" th:narrative=\"${resource.compositeScoring.getText().substring(0, 1).toUpperCase() + resource.compositeScoring.getText().substring(1)}\"></td>\n        </tr> -->\n        \n            <tr style=\"vertical-align: top;\">\n                <td rowspan=\"1\" scope=\"row\" style=\"width:20%\"><span>Type</span></td>\n                <td colspan=\"3\" style=\"width:80%\">Process</td>\n            </tr>\n        \n                  <!-- <tr th:if=\"${resource.hasStatus()}\" style=\"vertical-align: top;\">\n            <td style=\"background-color:#656565; width:20%\" scope=\"row\"><span class=\"td_label\">Status</span></td>\n            <td style=\"width:80%\" colspan=\"3\" th:narrative=\"${resource.status.toString().substring(0, 1).toUpperCase() + resource.status.toString().substring(1).toLowerCase()}\"></td>\n        </tr>\n        <tr th:if=\"${resource.hasPurpose()}\" style=\"vertical-align: top;\">\n            <td style=\"background-color:#656565; width:20%\" scope=\"row\"><span class=\"td_label\">Purpose</span></td>\n            <td style=\"width:80%\" colspan=\"3\" th:narrative=\"${resource.purpose}\"></td>\n        </tr>\n        <tr th:if=\"${resource.hasUsage()}\" style=\"vertical-align: top;\" >\n            <td style=\"background-color:#656565; width:20%\" scope=\"row\"><span class=\"td_label\">Usage</span></td>\n            <td style=\"width:80%\" colspan=\"3\" th:narrative=\"${resource.usage}\"></td>\n        </tr>\n        <th:block th:each=\"context, iter : ${resource.useContext}\" >\n            <tr style=\"vertical-align: top;\">\n                <td th:if=\"${iter.index == 0}\" th:rowspan=\"${iter.size}\" style=\"background-color:#656565; width:20%\" scope=\"row\"><span class=\"td_label\">Use Context</span></td>\n                <td style=\"width:80%\" colspan=\"3\" th:narrative=\"${context}\"></td>\n            </tr>\n        </th:block>\n        <th:block th:each=\"topics, iter : ${resource.topic}\" >\n            <tr style=\"vertical-align: top;\">\n                <td th:if=\"${iter.index == 0}\" th:rowspan=\"${iter.size}\" style=\"background-color:#656565; width:20%\" scope=\"row\"><span class=\"td_label\">Topic</span></td>\n                <td style=\"width:80%\" colspan=\"3\" th:narrative=\"${topics}\"></td>\n            </tr>\n        </th:block>\n        <th:block th:each=\"cont, iter : ${resource.contributor}\" >\n            <tr style=\"vertical-align: top;\">\n                <td th:if=\"${iter.index == 0}\" th:rowspan=\"${iter.size}\" style=\"background-color:#656565; width:20%\" scope=\"row\"><span class=\"td_label\">Contributor</span></td>\n                <td style=\"width:80%\" colspan=\"3\">\n                    <b><span th:narrative=\"${cont.type.toCode()}\"></span>: </b><span th:narrative=\"${cont.name}\"></span>\n                </td>\n            </tr>\n        </th:block> -->\n                  <!-- <th:block th:each=\"lib, iter : ${resource.library}\" >\n            <tr style=\"vertical-align: top;\">\n                <td th:if=\"${iter.index == 0}\" th:rowspan=\"${iter.size}\" style=\"background-color:#656565; width:20%\" scope=\"row\"><span class=\"td_label\">Library</span></td>\n                <td style=\"width:80%\" colspan=\"3\">\n                    <p th:if=\"${lib.hasIdentifier()}\"><b>identifier: </b><span th:narrative=\"${lib.identifier}\"></span></p>\n                    <p th:if=\"${lib.hasReference()}\"><b>reference: </b><span th:narrative=\"${lib.reference}\"></span></p>\n                    <p th:if=\"${lib.hasDisplay()}\"><b>display: </b><span th:narrative=\"${lib.display}\"></span></p>\n                </td>\n            </tr>\n        </th:block> -->\n        \n                  <!-- <tr th:if=\"${resource.hasRateAggregation()}\" >\n            <td style=\"background-color:#656565; width:20%\" scope=\"row\"><span class=\"td_label\">Rate Aggregation</span></td>\n            <td style=\"width:80%\" colspan=\"3\">\n                <div style=\"width:660px;overflow-x:hidden;overflow-y:auto\">\n                    <pre th:text=\"${resource.rateAggregation}\"></pre>\n                </div>\n            </td>\n        </tr>\n        <tr th:if=\"${resource.hasRationale()}\">\n            <td style=\"background-color:#656565; width:20%\" scope=\"row\"><span class=\"td_label\">Rationale</span></td>\n            <td style=\"width:80%\" colspan=\"3\">\n                <div style=\"width:660px;overflow-x:hidden;overflow-y:auto\">\n                    <pre th:text=\"${resource.rationale}\"></pre>\n                </div>\n            </td>\n        </tr> -->\n        <tr>\n            <td scope=\"row\" style=\"width:20%\"><span>Improvement Notation</span></td>\n            <td colspan=\"3\" style=\"width:80%\">A higher rate indicates better performance.</td>\n            \n        </tr>\n        <tr>\n            <td scope=\"row\" style=\"width:20%\"><span>Guidance</span></td>\n            <td colspan=\"3\" style=\"width:80%\">\n                <div style=\"width:660px;overflow-x:hidden;overflow-y:auto\"><p>This measure evaluates the proportion of patients aged 15 to 65 at the start of the measurement period who have documentation of having received an HIV test at least once on or after their 15th birthday and before their 66th birthday. In order to satisfy the measure, the reporting provider must have documentation of the administration of the laboratory test present in the patient's medical record. In cases where the HIV test was performed elsewhere, providers cannot rely on patient attestation or self-report to meet the measure requirements, as previous research has shown that patient self-report is an unreliable indicator of previous HIV testing history. Rather, providers must request documentation of those test results. If such documentation is not available, the patient should be considered still eligible for HIV screening. If such documentation is available, but cannot be provided in a standardized, structured format (such that the lab test and results can be readily incorporated as structured data within the EHR), providers should enter the information into their EHR as a laboratory test in a manner consistent with the EHR in use. If the specific Human Immunodeficiency Virus (HIV) Laboratory Test LOINC code of the test is not known, the entry should use the more generic code LOINC panel code [75622-1].</p>\n</div>\n            </td>\n        </tr>\n        <tr>\n            <td colspan=\"4\" scope=\"row\" style=\"background-color:#656565; width:100%\"><span class=\"td_label\">Definitions</span></td>\n        </tr>\n        \n        \n                  <!-- <th:block th:each=\"groups, iter : ${resource.uniquePopulationGroup}\" >\n            <tr style=\"vertical-align: top;\">\n                <td style=\"background-color:#656565; width:20%\" scope=\"row\"><span class=\"td_label\" th:text=\"${groups.identifier.value}\"></span></td>\n                <td style=\"width:80%\" colspan=\"3\">\n                    <div style=\"width:660px;overflow-x:hidden;overflow-y:auto\">\n                        <pre th:text=\"${pops.description}\"></pre>\n                    </div>\n                </td>\n            </tr>\n        </th:block> -->\n    </table>\n    <table style=\"width: 60%; border-top: none; border-bottom: none\" class=\"header_table\">\n        \n    </table>\n    <table style=\"width: 60%; border-top: none;\" class=\"header_table\">\n                  <!-- <th:block th:each=\"supples, iter : ${resource.supplementalData}\">\n            <tr>\n                <th th:if=\"${iter.index == 0}\" th:rowspan=\"${iter.size}\" scope=\"row\"><b>Supplemental Data:</b></th>\n                <td style=\"width:80%\" colspan=\"3\" >\n                    <p style=\"margin-bottom: 5px;\" th:narrative=\"${supples.identifier}\"></p>\n                    <p style=\"margin-bottom: 5px;\" th:each=\"uses : ${supples.usage}\">\n                        <b>usage: </b>\n                        <span th:narrative=\"${uses}\"></span>\n                    </p>\n                    <p style=\"margin-bottom: 5px;\" th:if=\"${supples.hasCriteria()}\">\n                        <b>criteria: </b>\n                        <span th:narrative=\"${supples.criteria}\"></span>\n                    </p>\n                    <p style=\"margin-bottom: 5px;\" th:if=\"${supples.hasPath()}\">\n                        <b>path: </b>\n                        <span th:narrative=\"${supples.path}\"></span>\n                    </p>\n                </td>\n            </tr>\n        </th:block> -->\n                  <!-- <th:block th:each=\"param, iter : ${resource.parameter}\">\n            <tr style=\"vertical-align: top;\">\n                <th th:if=\"${iter.index == 0}\" th:rowspan=\"${iter.size}\" scope=\"row\"><b>Parameter: </b></th>\n                <td style=\"width:80%\" colspan=\"3\" >\n                    <span th:if=\"${param.hasName()}\">\n                        <b>name: </b>\n                        <span th:narrative=\"${param.name}\"></span>\n                        <br/>\n                    </span>\n                    <b>use: </b>\n                    <span th:narrative=\"${param.use.toCode()}\"></span>\n                    <br/>\n                    <span th:if=\"${param.hasMin()}\">\n                        <b>minimum cardinality: </b>\n                        <span th:narrative=\"${param.min}\"></span>\n                        <br/>\n                    </span>\n                    <span th:if=\"${param.hasMax()}\">\n                        <b>maximum cardinality: </b>\n                        <span th:narrative=\"${param.max}\"></span>\n                        <br/>\n                    </span>\n                    <b>type: </b>\n                    <span th:narrative=\"${param.type}\"></span>\n                    <br/>\n                    <span th:if=\"${param.hasDocumentation()}\">\n                        <b>documentation: </b>\n                        <span th:narrative=\"${param.documentation}\"></span>\n                        <br/>\n                    </span>\n                    <span th:if=\"${param.hasProfile()}\">\n                        <b>profile: </b>\n                        <span th:narrative=\"${param.profile}\"></span>\n                        <br/>\n                    </span>\n                    <p style=\"margin-bottom: 5px;\"></p>\n                </td>\n            </tr>\n        </th:block> -->\n                  <!-- <th:block th:each=\"dataReq, iter : ${resource.dataRequirement}\">\n            <tr style=\"vertical-align: top;\">\n                    <th th:if=\"${iter.index == 0}\" th:rowspan=\"${iter.size}\" scope=\"row\" ><b>Data Requirements: </b></th>\n                    <td style=\"width:80%\" colspan=\"3\" th:narrative=\"${dataReq}\"></td>\n            </tr>\n        </th:block> -->\n    </table>\n  <h2><a name=\"toc\">Table of Contents</a></h2>\n  <ul style=\"padding-left: 50px;\">\n   <li><a href=\"#d1e405\">Population Criteria</a></li>\n   <li><a href=\"#d1e649\">Definitions</a></li>\n   <li><a href=\"#d1e650\">Functions</a></li>\n   <li><a href=\"#d1e555\">Terminology</a></li>\n   <li><a href=\"#d1e647\">Data Criteria (QDM Data Elements)</a></li>\n   <li><a href=\"#d1e767\">Supplemental Data Elements</a></li>\n   <li><a href=\"#d1e879\">Risk Adjustment Variables</a></li>\n  </ul>\n  <div style=\"float:left; background:teal; height:3px; width:80%\"/>\n  \n    <pre><br/></pre>\n    <h3><a name=\"d1e405\" href=\"#toc\">Population Criteria</a></h3>\n    <div>\n    <ul style=\"list-style:none;padding-left:10px;\">\n        <li style=\"list-style:none;padding-left:0px;\" class=\"list-unstyled\">\n        <div class=\"treeview hover p-l-10\">\n        <ul class=\"list-unstyled\">\n        <li class=\"list-unstyled\"><input id=\"Initial Population\" type=\"checkbox\"/><label for=\"Initial Population\" class=\"list-header\"><strong>Initial Population</strong></label>\n            <ul class=\"code\">\n            <li class=\"list-unstyled\">\n            <div class=\"treeview hover p-l-10\">\n            <ul>\n                <li style=\"padding-left: 0px;\">\n                <div>\n                <pre class=\"cql-definition-body\"> Global.&quot;CalendarAgeInYearsAt&quot;(FHIRHelpers.ToDate(Patient.birthDate), start of &quot;Measurement Period&quot;)%26gt;= 15\r\n\t\tand Global.&quot;CalendarAgeInYearsAt&quot;(FHIRHelpers.ToDate(Patient.birthDate), start of &quot;Measurement Period&quot;)%26lt; 66\r\n\t\tand exists &quot;Qualifying Encounters&quot;</pre>\n                </div></li>\n            </ul>%26nbsp;\n            </div></li>\n            </ul></li>\n        </ul>\n        </div>\n        <div class=\"treeview hover p-l-10\">\n        <ul class=\"list-unstyled\">\n        <li class=\"list-unstyled\"><input id=\"Numerator\" type=\"checkbox\"/><label for=\"Numerator\" class=\"list-header\"><strong>Numerator</strong></label>\n            <ul class=\"code\">\n            <li class=\"list-unstyled\">\n            <div class=\"treeview hover p-l-10\">\n            <ul>\n                <li style=\"padding-left: 0px;\">\n                <div>\n                <pre class=\"cql-definition-body\">\texists ( &quot;HIV Test Performed&quot; )</pre>\n                </div></li>\n            </ul>%26nbsp;\n            </div></li>\n            </ul></li>\n        </ul>\n        </div>\n        <div class=\"treeview hover p-l-10\">\n        <ul class=\"list-unstyled\">\n        <li class=\"list-unstyled\"><input id=\"Denominator\" type=\"checkbox\"/><label for=\"Denominator\" class=\"list-header\"><strong>Denominator</strong></label>\n            <ul class=\"code\">\n            <li class=\"list-unstyled\">\n            <div class=\"treeview hover p-l-10\">\n            <ul>\n                <li style=\"padding-left: 0px;\">\n                <div>\n                <pre class=\"cql-definition-body\">\t&quot;Initial Population&quot;</pre>\n                </div></li>\n            </ul>%26nbsp;\n            </div></li>\n            </ul></li>\n        </ul>\n        </div>\n        <div class=\"treeview hover p-l-10\">\n        <ul class=\"list-unstyled\">\n        <li class=\"list-unstyled\"><input id=\"Denominator Exclusion\" type=\"checkbox\"/><label for=\"Denominator Exclusion\" class=\"list-header\"><strong>Denominator Exclusion</strong></label>\n            <ul class=\"code\">\n            <li class=\"list-unstyled\">\n            <div class=\"treeview hover p-l-10\">\n            <ul>\n                <li style=\"padding-left: 0px;\">\n                <div>\n                <pre class=\"cql-definition-body\">\texists ( [Condition: code in &quot;Conditions Due To Human Immunodeficiency Virus (HIV)&quot;] HIVConditions\r\n\t\t\twhere HIVConditions.clinicalStatus = 'active'\r\n\t\t\tand HIVConditions.verificationStatus = 'confirmed'\r\n\t\t\tand (HIVConditions.onset as dateTime) before start of &quot;Measurement Period&quot;\r\n\t)</pre>\n                </div></li>\n            </ul>%26nbsp;\n            </div></li>\n            </ul></li>\n        </ul>\n        </div></li>\n    </ul>\n    </div>\n\n  <h3><a name=\"d1e649\" href=\"#toc\">Definitions</a></h3>\n  <div>\n   <ul style=\"list-style:none;padding-left: 10px;\">\n    <li style=\"list-style:none;\" class=\"list-unstyled\">\n     <div>\n      <ul style=\"list-style:none;padding-left:0;\" class=\"list-unstyled\">\n       <li class=\"list-unstyled\">\n        <div class=\"treeview hover p-l-10\">\n         <input id=\"Denominator\" type=\"checkbox\"/>\n         <label for=\"Denominator\" class=\"list-header\"><strong>Denominator</strong></label>\n         <ul style=\"margin-right: 20%; opacity: 1;\" class=\"code\">\n          <li class=\"list-unstyled\">\n           <div>\n            <ul style=\"padding-left: 0px;\">\n             <li style=\"padding-left: 0px;\" class=\"list-unstyled\">\n              <div>\n               <pre class=\"cql-definition-body\">\t&quot;Initial Population&quot;</pre>\n              </div></li>\n            </ul>%26nbsp;\n           </div></li>\n         </ul>\n        </div></li>\n      </ul>\n     </div></li>\n   </ul>\n  </div>\n  <div>\n   <ul style=\"list-style:none;padding-left: 10px;\">\n    <li style=\"list-style:none;\" class=\"list-unstyled\">\n     <div>\n      <ul style=\"list-style:none;padding-left:0;\" class=\"list-unstyled\">\n       <li class=\"list-unstyled\">\n        <div class=\"treeview hover p-l-10\">\n         <input id=\"Denominator Exclusion\" type=\"checkbox\"/>\n         <label for=\"Denominator Exclusion\" class=\"list-header\"><strong>Denominator Exclusion</strong></label>\n         <ul style=\"margin-right: 20%; opacity: 1;\" class=\"code\">\n          <li class=\"list-unstyled\">\n           <div>\n            <ul style=\"padding-left: 0px;\">\n             <li style=\"padding-left: 0px;\" class=\"list-unstyled\">\n              <div>\n               <pre class=\"cql-definition-body\">\texists ( [Condition: code in &quot;Conditions Due To Human Immunodeficiency Virus (HIV)&quot;] HIVConditions\r\n\t\t\twhere HIVConditions.clinicalStatus = 'active'\r\n\t\t\tand HIVConditions.verificationStatus = 'confirmed'\r\n\t\t\tand (HIVConditions.onset as dateTime) before start of &quot;Measurement Period&quot;\r\n\t)</pre>\n              </div></li>\n            </ul>%26nbsp;\n           </div></li>\n         </ul>\n        </div></li>\n      </ul>\n     </div></li>\n   </ul>\n  </div>\n  <div>\n   <ul style=\"list-style:none;padding-left: 10px;\">\n    <li style=\"list-style:none;\" class=\"list-unstyled\">\n     <div>\n      <ul style=\"list-style:none;padding-left:0;\" class=\"list-unstyled\">\n       <li class=\"list-unstyled\">\n        <div class=\"treeview hover p-l-10\">\n         <input id=\"HIV Test Performed\" type=\"checkbox\"/>\n         <label for=\"HIV Test Performed\" class=\"list-header\"><strong>HIV Test Performed</strong></label>\n         <ul style=\"margin-right: 20%; opacity: 1;\" class=\"code\">\n          <li class=\"list-unstyled\">\n           <div>\n            <ul style=\"padding-left: 0px;\">\n             <li style=\"padding-left: 0px;\" class=\"list-unstyled\">\n              <div>\n               <pre class=\"cql-definition-body\">\t( [Observation: &quot;Human Immunodeficiency Virus (HIV) Laboratory Test Codes (Ab and Ag)&quot;]\r\n\t\tunion [Observation: &quot;HIV 1 and 2 tests - Meaningful Use set&quot;] ) HIVTest\r\n\t\twhere (\r\n\t\t\t\t( Global.&quot;CalendarAgeInYearsAt&quot;(FHIRHelpers.ToDate(Patient.birthDate), HIVTest.effective as dateTime)%26gt;= 15\r\n\t\t\t \t\tor Global.&quot;CalendarAgeInYearsAt&quot;(FHIRHelpers.ToDate(Patient.birthDate), start of HIVTest.effective)%26gt;= 15)\r\n\t\t\t\t\tand  ( Global.&quot;CalendarAgeInYearsAt&quot;(FHIRHelpers.ToDate(Patient.birthDate), HIVTest.effective as dateTime)%26lt; 66 )\r\n\t\t\t\t\t\tor Global.&quot;CalendarAgeInYearsAt&quot;(FHIRHelpers.ToDate(Patient.birthDate), start of HIVTest.effective)%26lt; 66)\r\n\r\n\t\t\tand HIVTest.status in {'final', 'amended', 'corrected', 'preliminary'}\r\n\t\t\tand (\r\n\t\t\t\tHIVTest.effective starts before end of &quot;Measurement Period&quot;\r\n\t\t\t\t\tor HIVTest.effective as dateTime before end of &quot;Measurement Period&quot;\r\n\t\t\t)</pre>\n              </div></li>\n            </ul>%26nbsp;\n           </div></li>\n         </ul>\n        </div></li>\n      </ul>\n     </div></li>\n   </ul>\n  </div>\n  <div>\n   <ul style=\"list-style:none;padding-left: 10px;\">\n    <li style=\"list-style:none;\" class=\"list-unstyled\">\n     <div>\n      <ul style=\"list-style:none;padding-left:0;\" class=\"list-unstyled\">\n       <li class=\"list-unstyled\">\n        <div class=\"treeview hover p-l-10\">\n         <input id=\"Initial Population\" type=\"checkbox\"/>\n         <label for=\"Initial Population\" class=\"list-header\"><strong>Initial Population</strong></label>\n         <ul style=\"margin-right: 20%; opacity: 1;\" class=\"code\">\n          <li class=\"list-unstyled\">\n           <div>\n            <ul style=\"padding-left: 0px;\">\n             <li style=\"padding-left: 0px;\" class=\"list-unstyled\">\n              <div>\n               <pre class=\"cql-definition-body\"> Global.&quot;CalendarAgeInYearsAt&quot;(FHIRHelpers.ToDate(Patient.birthDate), start of &quot;Measurement Period&quot;)%26gt;= 15\r\n\t\tand Global.&quot;CalendarAgeInYearsAt&quot;(FHIRHelpers.ToDate(Patient.birthDate), start of &quot;Measurement Period&quot;)%26lt; 66\r\n\t\tand exists &quot;Qualifying Encounters&quot;</pre>\n              </div></li>\n            </ul>%26nbsp;\n           </div></li>\n         </ul>\n        </div></li>\n      </ul>\n     </div></li>\n   </ul>\n  </div>\n  <div>\n   <ul style=\"list-style:none;padding-left: 10px;\">\n    <li style=\"list-style:none;\" class=\"list-unstyled\">\n     <div>\n      <ul style=\"list-style:none;padding-left:0;\" class=\"list-unstyled\">\n       <li class=\"list-unstyled\">\n        <div class=\"treeview hover p-l-10\">\n         <input id=\"Numerator\" type=\"checkbox\"/>\n         <label for=\"Numerator\" class=\"list-header\"><strong>Numerator</strong></label>\n         <ul style=\"margin-right: 20%; opacity: 1;\" class=\"code\">\n          <li class=\"list-unstyled\">\n           <div>\n            <ul style=\"padding-left: 0px;\">\n             <li style=\"padding-left: 0px;\" class=\"list-unstyled\">\n              <div>\n               <pre class=\"cql-definition-body\">\texists ( &quot;HIV Test Performed&quot; )</pre>\n              </div></li>\n            </ul>%26nbsp;\n           </div></li>\n         </ul>\n        </div></li>\n      </ul>\n     </div></li>\n   </ul>\n  </div>\n  <div>\n   <ul style=\"list-style:none;padding-left: 10px;\">\n    <li style=\"list-style:none;\" class=\"list-unstyled\">\n     <div>\n      <ul style=\"list-style:none;padding-left:0;\" class=\"list-unstyled\">\n       <li class=\"list-unstyled\">\n        <div class=\"treeview hover p-l-10\">\n         <input id=\"Qualifying Encounters\" type=\"checkbox\"/>\n         <label for=\"Qualifying Encounters\" class=\"list-header\"><strong>Qualifying Encounters</strong></label>\n         <ul style=\"margin-right: 20%; opacity: 1;\" class=\"code\">\n          <li class=\"list-unstyled\">\n           <div>\n            <ul style=\"padding-left: 0px;\">\n             <li style=\"padding-left: 0px;\" class=\"list-unstyled\">\n              <div>\n               <pre class=\"cql-definition-body\">\t( [Encounter: &quot;Preventive Care Services, Initial Office Visit, 0 to 17&quot;]\r\n\t\tunion [Encounter: &quot;Preventive Care Services-Initial Office Visit, 18 and Up&quot;]\r\n\t\tunion [Encounter: &quot;Preventive Care, Established Office Visit, 0 to 17&quot;]\r\n\t\tunion [Encounter: &quot;Preventive Care Services - Established Office Visit, 18 and Up&quot;]\r\n\t\tunion [Encounter: &quot;Office Visit&quot;] ) ValidEncounter\r\n\t\twhere ValidEncounter.status = 'finished'\r\n\t\tand ValidEncounter.period during &quot;Measurement Period&quot;</pre>\n              </div></li>\n            </ul>%26nbsp;\n           </div></li>\n         </ul>\n        </div></li>\n      </ul>\n     </div></li>\n   </ul>\n  </div>\n  <div>\n   <ul style=\"list-style:none;padding-left: 10px;\">\n    <li style=\"list-style:none;\" class=\"list-unstyled\">\n     <div>\n      <ul style=\"list-style:none;padding-left:0;\" class=\"list-unstyled\">\n       <li class=\"list-unstyled\">\n        <div class=\"treeview hover p-l-10\">\n         <input id=\"SDE Ethnicity\" type=\"checkbox\"/>\n         <label for=\"SDE Ethnicity\" class=\"list-header\"><strong>SDE Ethnicity</strong></label>\n         <ul style=\"margin-right: 20%; opacity: 1;\" class=\"code\">\n          <li class=\"list-unstyled\">\n           <div>\n            <ul style=\"padding-left: 0px;\">\n             <li style=\"padding-left: 0px;\" class=\"list-unstyled\">\n              <div>\n               <pre class=\"cql-definition-body\">\t SDE.&quot;SDE Ethnicity&quot;</pre>\n              </div></li>\n            </ul>%26nbsp;\n           </div></li>\n         </ul>\n        </div></li>\n      </ul>\n     </div></li>\n   </ul>\n  </div>\n  <div>\n   <ul style=\"list-style:none;padding-left: 10px;\">\n    <li style=\"list-style:none;\" class=\"list-unstyled\">\n     <div>\n      <ul style=\"list-style:none;padding-left:0;\" class=\"list-unstyled\">\n       <li class=\"list-unstyled\">\n        <div class=\"treeview hover p-l-10\">\n         <input id=\"SDE Payer\" type=\"checkbox\"/>\n         <label for=\"SDE Payer\" class=\"list-header\"><strong>SDE Payer</strong></label>\n         <ul style=\"margin-right: 20%; opacity: 1;\" class=\"code\">\n          <li class=\"list-unstyled\">\n           <div>\n            <ul style=\"padding-left: 0px;\">\n             <li style=\"padding-left: 0px;\" class=\"list-unstyled\">\n              <div>\n               <pre class=\"cql-definition-body\">\tSDE.&quot;SDE Payer&quot;</pre>\n              </div></li>\n            </ul>%26nbsp;\n           </div></li>\n         </ul>\n        </div></li>\n      </ul>\n     </div></li>\n   </ul>\n  </div>\n  <div>\n   <ul style=\"list-style:none;padding-left: 10px;\">\n    <li style=\"list-style:none;\" class=\"list-unstyled\">\n     <div>\n      <ul style=\"list-style:none;padding-left:0;\" class=\"list-unstyled\">\n       <li class=\"list-unstyled\">\n        <div class=\"treeview hover p-l-10\">\n         <input id=\"SDE Race\" type=\"checkbox\"/>\n         <label for=\"SDE Race\" class=\"list-header\"><strong>SDE Race</strong></label>\n         <ul style=\"margin-right: 20%; opacity: 1;\" class=\"code\">\n          <li class=\"list-unstyled\">\n           <div>\n            <ul style=\"padding-left: 0px;\">\n             <li style=\"padding-left: 0px;\" class=\"list-unstyled\">\n              <div>\n               <pre class=\"cql-definition-body\">\tSDE.&quot;SDE Race&quot;</pre>\n              </div></li>\n            </ul>%26nbsp;\n           </div></li>\n         </ul>\n        </div></li>\n      </ul>\n     </div></li>\n   </ul>\n  </div>\n  <div>\n   <ul style=\"list-style:none;padding-left: 10px;\">\n    <li style=\"list-style:none;\" class=\"list-unstyled\">\n     <div>\n      <ul style=\"list-style:none;padding-left:0;\" class=\"list-unstyled\">\n       <li class=\"list-unstyled\">\n        <div class=\"treeview hover p-l-10\">\n         <input id=\"SDE Sex\" type=\"checkbox\"/>\n         <label for=\"SDE Sex\" class=\"list-header\"><strong>SDE Sex</strong></label>\n         <ul style=\"margin-right: 20%; opacity: 1;\" class=\"code\">\n          <li class=\"list-unstyled\">\n           <div>\n            <ul style=\"padding-left: 0px;\">\n             <li style=\"padding-left: 0px;\" class=\"list-unstyled\">\n              <div>\n               <pre class=\"cql-definition-body\">\tSDE.&quot;SDE Sex&quot;</pre>\n              </div></li>\n            </ul>%26nbsp;\n           </div></li>\n         </ul>\n        </div></li>\n      </ul>\n     </div></li>\n   </ul>\n  </div>\n  <h3><a name=\"d1e650\" href=\"#toc\">Functions</a></h3>\n  \n  <h3><a name=\"d1e555\" href=\"#toc\">Terminology</a></h3>\n  <div>\n   <ul style=\"padding-left: 50px;\">\n    <li style=\"width:80%\">codesystem &quot;LOINC&quot; : 'http://loinc.org'</li>\n    <li style=\"width:80%\">code &quot;HIV 1 and 2 tests - Meaningful Use set&quot; : '75622-1' from &quot;LOINC&quot; display 'HIV 1 and 2 tests - Meaningful Use set'</li>\n    <li style=\"width:80%\">valueset &quot;Conditions Due To Human Immunodeficiency Virus (HIV)&quot; : 'http://cts.nlm.nih.gov/fhir/ValueSet/2.16.840.1.113762.1.4.1056.54'</li>\n    <li style=\"width:80%\">valueset &quot;Ethnicity&quot; : 'http://cts.nlm.nih.gov/fhir/ValueSet/2.16.840.1.114222.4.11.837'</li>\n    <li style=\"width:80%\">valueset &quot;Human Immunodeficiency Virus (HIV) Laboratory Test Codes (Ab and Ag)&quot; : 'http://cts.nlm.nih.gov/fhir/ValueSet/2.16.840.1.113762.1.4.1056.50'</li>\n    <li style=\"width:80%\">valueset &quot;Office Visit&quot; : 'http://cts.nlm.nih.gov/fhir/ValueSet/2.16.840.1.113883.3.464.1003.101.12.1001'</li>\n    <li style=\"width:80%\">valueset &quot;ONC Administrative Sex&quot; : 'http://cts.nlm.nih.gov/fhir/ValueSet/2.16.840.1.113762.1.4.1'</li>\n    <li style=\"width:80%\">valueset &quot;Payer&quot; : 'http://cts.nlm.nih.gov/fhir/ValueSet/2.16.840.1.114222.4.11.3591'</li>\n    <li style=\"width:80%\">valueset &quot;Preventive Care Services - Established Office Visit, 18 and Up&quot; : 'http://cts.nlm.nih.gov/fhir/ValueSet/2.16.840.1.113883.3.464.1003.101.12.1025'</li>\n    <li style=\"width:80%\">valueset &quot;Preventive Care Services, Initial Office Visit, 0 to 17&quot; : 'http://cts.nlm.nih.gov/fhir/ValueSet/2.16.840.1.113883.3.464.1003.101.12.1022'</li>\n    <li style=\"width:80%\">valueset &quot;Preventive Care Services-Initial Office Visit, 18 and Up&quot; : 'http://cts.nlm.nih.gov/fhir/ValueSet/2.16.840.1.113883.3.464.1003.101.12.1023'</li>\n    <li style=\"width:80%\">valueset &quot;Preventive Care, Established Office Visit, 0 to 17&quot; : 'http://cts.nlm.nih.gov/fhir/ValueSet/2.16.840.1.113883.3.464.1003.101.12.1024'</li>\n    <li style=\"width:80%\">valueset &quot;Race&quot; : 'http://cts.nlm.nih.gov/fhir/ValueSet/2.16.840.1.114222.4.11.836'</li>\n   </ul>\n  </div>\n  <h3><a name=\"d1e647\" href=\"#toc\">Data Criteria (QDM Data Elements)</a></h3>\n  <div>\n    <ul style=\"padding-left: 50px;\">\n      <li style=\"width:80%\">&quot;Condition: Conditions Due To Human Immunodeficiency Virus (HIV)&quot; using &quot;Conditions Due To Human Immunodeficiency Virus (HIV) (http://cts.nlm.nih.gov/fhir/ValueSet/2.16.840.1.113762.1.4.1056.54)</li>\n      <li style=\"width:80%\">&quot;Encounter: Office Visit&quot; using &quot;Office Visit (http://cts.nlm.nih.gov/fhir/ValueSet/2.16.840.1.113883.3.464.1003.101.12.1001)</li>\n      <li style=\"width:80%\">&quot;Encounter: Preventive Care Services - Established Office Visit, 18 and Up&quot; using &quot;Preventive Care Services - Established Office Visit, 18 and Up (http://cts.nlm.nih.gov/fhir/ValueSet/2.16.840.1.113883.3.464.1003.101.12.1025)</li>\n      <li style=\"width:80%\">&quot;Encounter: Preventive Care Services, Initial Office Visit, 0 to 17&quot; using &quot;Preventive Care Services, Initial Office Visit, 0 to 17 (http://cts.nlm.nih.gov/fhir/ValueSet/2.16.840.1.113883.3.464.1003.101.12.1022)</li>\n      <li style=\"width:80%\">&quot;Encounter: Preventive Care Services-Initial Office Visit, 18 and Up&quot; using &quot;Preventive Care Services-Initial Office Visit, 18 and Up (http://cts.nlm.nih.gov/fhir/ValueSet/2.16.840.1.113883.3.464.1003.101.12.1023)</li>\n      <li style=\"width:80%\">&quot;Encounter: Preventive Care, Established Office Visit, 0 to 17&quot; using &quot;Preventive Care, Established Office Visit, 0 to 17 (http://cts.nlm.nih.gov/fhir/ValueSet/2.16.840.1.113883.3.464.1003.101.12.1024)</li>\n      <li style=\"width:80%\">&quot;Observation: Human Immunodeficiency Virus (HIV) Laboratory Test Codes (Ab and Ag)&quot; using &quot;Human Immunodeficiency Virus (HIV) Laboratory Test Codes (Ab and Ag) (http://cts.nlm.nih.gov/fhir/ValueSet/2.16.840.1.113762.1.4.1056.50)</li>\n    </ul>\n  </div>\n  <h3><a name=\"d1e767\" href=\"#toc\">Supplemental Data Elements</a></h3>\n  <div>\n   <ul style=\"list-style:none;padding-left: 25px;\">\n    <li class=\"list-unstyled\">\n     <div class=\"treeview hover p-l-10\">\n      <input id=\"SDE Ethnicity\" type=\"checkbox\"/>\n      <label for=\"SDE Ethnicity\" class=\"list-header\"><strong>SDE Ethnicity</strong></label>\n      <ul style=\"margin-right: 20%; opacity: 1;\" class=\"code\">\n       <li class=\"list-unstyled\">\n        <div>\n         <ul style=\"padding-left: 0px;\">\n          <li style=\"padding-left: 0px;\" class=\"list-unstyled\">\n           <div>\n            <pre class=\"cql-definition-body\">\t SDE.&quot;SDE Ethnicity&quot;</pre>\n           </div></li>\n         </ul>%26nbsp;\n        </div></li>\n      </ul>\n     </div></li>\n   </ul>\n  </div>\n  <div>\n   <ul style=\"list-style:none;padding-left: 25px;\">\n    <li class=\"list-unstyled\">\n     <div class=\"treeview hover p-l-10\">\n      <input id=\"SDE Payer\" type=\"checkbox\"/>\n      <label for=\"SDE Payer\" class=\"list-header\"><strong>SDE Payer</strong></label>\n      <ul style=\"margin-right: 20%; opacity: 1;\" class=\"code\">\n       <li class=\"list-unstyled\">\n        <div>\n         <ul style=\"padding-left: 0px;\">\n          <li style=\"padding-left: 0px;\" class=\"list-unstyled\">\n           <div>\n            <pre class=\"cql-definition-body\">\tSDE.&quot;SDE Payer&quot;</pre>\n           </div></li>\n         </ul>%26nbsp;\n        </div></li>\n      </ul>\n     </div></li>\n   </ul>\n  </div>\n  <div>\n   <ul style=\"list-style:none;padding-left: 25px;\">\n    <li class=\"list-unstyled\">\n     <div class=\"treeview hover p-l-10\">\n      <input id=\"SDE Race\" type=\"checkbox\"/>\n      <label for=\"SDE Race\" class=\"list-header\"><strong>SDE Race</strong></label>\n      <ul style=\"margin-right: 20%; opacity: 1;\" class=\"code\">\n       <li class=\"list-unstyled\">\n        <div>\n         <ul style=\"padding-left: 0px;\">\n          <li style=\"padding-left: 0px;\" class=\"list-unstyled\">\n           <div>\n            <pre class=\"cql-definition-body\">\tSDE.&quot;SDE Race&quot;</pre>\n           </div></li>\n         </ul>%26nbsp;\n        </div></li>\n      </ul>\n     </div></li>\n   </ul>\n  </div>\n  <div>\n   <ul style=\"list-style:none;padding-left: 25px;\">\n    <li class=\"list-unstyled\">\n     <div class=\"treeview hover p-l-10\">\n      <input id=\"SDE Sex\" type=\"checkbox\"/>\n      <label for=\"SDE Sex\" class=\"list-header\"><strong>SDE Sex</strong></label>\n      <ul style=\"margin-right: 20%; opacity: 1;\" class=\"code\">\n       <li class=\"list-unstyled\">\n        <div>\n         <ul style=\"padding-left: 0px;\">\n          <li style=\"padding-left: 0px;\" class=\"list-unstyled\">\n           <div>\n            <pre class=\"cql-definition-body\">\tSDE.&quot;SDE Sex&quot;</pre>\n           </div></li>\n         </ul>%26nbsp;\n        </div></li>\n      </ul>\n     </div></li>\n   </ul>\n  </div>\n  \n  <h3><a name=\"d1e879\" href=\"#toc\">Risk Adjustment Variables</a></h3>\n  <div>\n   <ul style=\"list-style:none;padding-left: 25px;\">\n    <li>None</li>\n   </ul>\n  </div>\n  <div style=\"float:left; background:teal; height:3px; width:80%\"/>\n  <table>\n        \n                  <!-- <th:block th:each=\"con, iter : ${resource.content}\">\n            <tr th:if=\"${con.contentType == 'text/cql'}\" style=\"vertical-align: top;\">\n                <td style=\"background-color:#656565; width:20%\" scope=\"row\"><span class=\"td_label\">Content</span></td>\n                <td style=\"width:80%\" ><b>type: </b><span th:text=\"${con.contentType}\"></span></td>\n            </tr>\n            <tr th:if=\"${con.contentType == 'text/cql'}\">\n                <td style=\"width:100%\" colspan=\"2\" >\n                    <th:block th:if=\"${con.getData() != null }\" >\n                        <pre><code th:class=\"${con.contentType == 'text/cql' ? 'language-cql' : 'language-xml'}\" th:text=\"${new java.lang.String(con.getData())}\"></code></pre>\n                    </th:block>\n                    <th:block th:if=\"${con.getData() == null }\" >\n                        <span><i>%26lt;content is empty%26gt;</i></span>\n                    </th:block>\n                </td>\n            </tr>\n        </th:block > -->\n    </table>\n</div>"
      },
      "extension": [ {
        "url": "http://hl7.org/fhir/us/cqfmeasures/StructureDefinition/cqfm-populationBasis",
        "valueCode": "boolean"
      }, {
        "url": "http://hl7.org/fhir/us/cqfmeasures/StructureDefinition/cqfm-softwaresystem",
        "valueReference": {
          "reference": "cqf-tooling"
        }
      } ],
      "url": "http://hl7.org/fhir/us/cqfmeasures/Measure/measure-EXM349-FHIR3-2.9.000",
      "version": "2.9.000",
      "name": "EXM349",
      "title": "HIV Screening",
      "status": "active",
      "experimental": true,
      "publisher": "National Committee for Quality Assurance (NCQA)",
      "description": "Percentage of patients aged 15-65 at the start of the measurement period who were between 15-65 years old when tested for HIV",
      "purpose": "Patients 15 to 65 years of age at the start of the measurement period AND who had at least one outpatient visit during the measurement period",
      "effectivePeriod": {
        "start": "2019-01-01",
        "end": "2019-12-31"
      },
      "useContext": [ {
        "code": {
          "code": "program"
        },
        "valueCodeableConcept": {
          "text": "eligible-provider"
        }
      } ],
      "jurisdiction": [ {
        "coding": [ {
          "system": "urn:iso:std:iso:3166",
          "code": "US"
        } ]
      } ],
      "topic": [ {
        "coding": [ {
          "system": "http://loinc.org",
          "code": "57024-2",
          "display": "Health Quality Measure Document"
        } ]
      } ],
      "contributor": [ {
        "type": "author",
        "name": "National Committee for Quality Assurance"
      } ],
      "contact": [ {
        "telecom": [ {
          "system": "url",
          "value": "http://www.ncqa.org/"
        } ]
      } ],
      "copyright": "This Physician Performance Measure (Measure) and related data specifications were developed by the National Committee for Quality Assurance (NCQA). NCQA is not responsible for any use of the Measure. NCQA makes no representations, warranties, or endorsement about the quality of any organization or physician that uses or reports performance measures and NCQA has no liability to anyone who relies on such measures or specifications. NCQA holds a copyright in the Measure. The Measure can be reproduced and distributed, without modification, for noncommercial purposes (eg, use by healthcare providers in connection with their practices) without obtaining approval from NCQA. Commercial use is defined as the sale, licensing, or distribution of the Measure for commercial gain, or incorporation of the Measure into a product or service that is sold, licensed or distributed for commercial gain. All commercial uses or requests for modification must be approved by NCQA and are subject to a license at the discretion of NCQA. (C) 2012-2017 National Committee for Quality Assurance. All Rights Reserved. <br> Limited proprietary coding is contained in the Measure specifications for user convenience. Users of proprietary code sets should obtain all necessary licenses from the owners of the code sets. NCQA disclaims all liability for use or accuracy of any third party codes contained in the specifications. <br> CPT(R) contained in the Measure specifications is copyright 2004-2017 American Medical Association. LOINC(R) copyright 2004-2017 Regenstrief Institute, Inc. This material contains SNOMED Clinical Terms(R) (SNOMED CT[R] ) copyright 2004-2017 International Health Terminology Standards Development Organisation. ICD-10 copyright 2017 World Health Organization. All Rights Reserved.",
      "relatedArtifact": [ {
        "type": "citation",
        "citation": "American Diabetes Association. (2018). 9. Cardiovascular disease and risk management: Standards of medical care in diabetes 2018. Diabetes Care, 41(Suppl. 1), S86-S104."
      }, {
        "type": "citation",
        "citation": "Benjamin, E. J., Blaha, M. J., Chiuve, S. E., et al. (2017). Heart disease and stroke statistics-2017 update: A report from the American Heart Association. Circulation, 135(10), e146-e603.doi: 10.1161/CIR.0000000000000485"
      }, {
        "type": "citation",
        "citation": "Centers for Disease Control and Prevention. (2012). Vital signs: Getting blood pressure under control. Retrieved from https://www.cdc.gov/vitalsigns/hypertension/index.html"
      }, {
        "type": "citation",
        "citation": "Centers for Disease Control and Prevention. Division for Heart Disease and Stroke Prevention. (2016). High blood pressure fact sheet. Retrieved from https://www.cdc.gov/dhdsp/data_statistics/fact_sheets/fs_bloodpressure.htmhttps://www.cdc.gov/dhdsp/data_statistics/fact_sheets/fs_bloodpressure.htm. "
      }, {
        "type": "citation",
        "citation": "Centers for Disease Control and Prevention, National Center for Health Statistics. (2015). Underlying Cause of Death 1999-2013 on CDC WONDER Online Database. Data are from the Multiple Cause of Death Files, 1999-2013, as compiled from data provided by the 57 vital statistics jurisdictions through the Vital Statistics Cooperative Program. Retrieved from http://wonder.cdc.gov/ucd-icd10.html"
      }, {
        "type": "citation",
        "citation": "Crim, M. T., Yoon, S. S., Ortiz, E., et al. (2012). National surveillance definitions for hypertension prevalence and control among adults. Circulation: Cardiovascular Quality and Outcomes. 2012, ;5(3), :343-–351. doi: 10.1161/ CIRCOUTCOMES.111.963439."
      }, {
        "type": "citation",
        "citation": "James, P. A., Oparil, S., Carter, B. L., et al (2014). 2014 evidence-based guideline for the management of high blood pressure in adults: Report from the panel members appointed to the Eighth Joint National Committee (JNC8). JAMA. 311(5), 507-520. doi:10.1001/jama.2013.284427"
      }, {
        "type": "citation",
        "citation": "Moran, A. E., Odden, M. C., Thanataveerat, A., et al.Tzong KY, Rasmussen PW, Guzman D, Williams L, Bibbins-Domingo K, Coxson PG, Goldman L. (2015). Cost-effectiveness of hypertension therapy according to 2014 guidelines. [published correction appears in N Engl J. Med. 2015;372:1677]. New England Journal of Medicine,. 2015 ;372, :447-–455. doi:  10.1056/NEJMsa1406751. [published correction appears on page 1677] \nFarley TA, Dalal MA, Mostashari F, Frieden TR. Deaths preventable in the US by improvements in the use of clinical preventive services. Am J Prev Med. 2010;38:600-9."
      }, {
        "type": "citation",
        "citation": "Patel, S. A., Winkel, M., Ali, M. K., et al. (2015). Cardiovascular mortality associated with 5 leading risk factors: National and state preventable fractions estimated from survey data. Annals of Internal Medicine, 163(4), :245–253. doi: 10.7326/M14-1753"
      }, {
        "type": "citation",
        "citation": "Qaseem, A., Wilt, T. J., Rich, R., et al. (2017). Pharmacologic treatment of hypertension in adults aged 60 years or older to higher versus lower blood pressure targets: A clinical practice guideline from the American College of Physicians and the American Academy of Family Physicians. Annals of Internal Medicine, 166(6), 430-437."
      }, {
        "type": "citation",
        "citation": "SPRINT Research Group,; Wright, J. T., Jr., Williamson,  J. D., et al. (2015). A randomized trial of intensive versus standard blood-pressure control. New England Journal of Medicine, 373(22), 2103–2116."
      }, {
        "type": "citation",
        "citation": "U.S. Preventive Services Task Force. (2015). Screening for high blood pressure in adults: U.S. Preventive Services Task Force recommendation statement. Annals of Internal Medicine, 163(10), 778-787."
      }, {
        "type": "citation",
        "citation": "Whelton, P. K., Carey, R. M., Aronow, W. S., et al. (2017). Guideline for the prevention, detection, evaluation, and management of high blood pressure in adults: A report of the American College of Cardiology/American Heart Association Task Force on Clinical Practice Guidelines. Journal of the American College of Cardiology, . https://doi.org/10.1161/HYP.0000000000000065"
      }, {
        "type": "citation",
        "citation": "Yoon, S. S., Fryar, C. D., & Carroll, M. D. (2015). Hypertension prevalence and control among adults: United States, 2011-2014. NCHS Data Brief No. 220. Hyattsville, MD: National Center for Health Statistics."
      }, {
        "type": "depends-on",
        "resource": {
          "reference": "Library/library-MATGlobalCommonFunctions-FHIR3-2.0.000"
        }
      }, {
        "type": "depends-on",
        "resource": {
          "reference": "Library/library-FHIRHelpers-3.0.0"
        }
      }, {
        "type": "depends-on",
        "resource": {
          "reference": "Library/library-SupplementalDataElements-FHIR3-1.0.0"
        }
      } ],
      "library": [ {
        "reference": "Library/library-EXM349-FHIR3-2.9.000"
      } ],
      "disclaimer": "The performance Measure is not a clinical guideline and does not establish a standard of medical care, and has not been tested for all potential applications. THE MEASURE AND SPECIFICATIONS ARE PROVIDED \"AS IS\" WITHOUT WARRANTY OF ANY KIND.\n \nDue to technical limitations, registered trademarks are indicated by (R) or [R] and unregistered trademarks are indicated by (TM) or [TM].",
      "scoring": {
        "coding": [ {
          "system": "http://hl7.org/fhir/measure-scoring",
          "code": "proportion"
        } ]
      },
      "type": [ {
        "coding": [ {
          "system": "http://hl7.org/fhir/measure-type",
          "code": "process"
        } ]
      } ],
      "rationale": "Human immunodeficiency virus (HIV) is a communicable infection that leads to a progressive disease with a long asymptomatic period. There were an estimated 38,500 new HIV infections in the United States in 2015 (Centers for Disease Control and Prevention, 2018a). Without treatment, most persons develop acquired immunodeficiency syndrome (AIDS) within 10 years of HIV infection. Antiretroviral therapy (ART) delays this progression and increases the length of survival, but it is most effective when initiated during the asymptomatic phase. Persons living with HIV who use ART and achieve viral suppression can have a nearly normal life expectancy (Samji et al., 2013).  DHHS Guidelines for the Use of Antiretroviral Agents in HIV-1-Infected Adults and Adolescents recommends antiretroviral therapy for all HIV-infected individuals to reduce the risk of disease progression (regardless of CD4 cell count at diagnosis) (Panel on Antiretroviral Guidelines for Adults and Adolescents, 2017).\n\nCDC estimates that almost 15% of the 1.1 million adults and adolescents living with HIV infection in the United States are unaware of their infection (Centers for Disease Control and Prevention, 2018b). Among persons diagnosed with HIV in 2011, one quarter were diagnosed with Stage 3 HIV (AIDS) at the time of HIV diagnosis (Centers for Disease Control and Prevention, 2018c), which is when the median CD4 count at diagnosis is less than 200 cells/mm3 for persons aged greater than or equal to 6 years (Centers for Disease Control and Prevention, 2018a). HIV screening identifies infected persons who were previously unaware of their infection, which enables them to seek medical and social services that can improve their health and the quality and length of their lives. Additionally, using ART with high levels of medication adherence has been shown to substantially reduce risk for HIV transmission (Panel on Antiretroviral Guidelines for Adults and Adolescents, 2017).\n\nBased on the National Health Interview Survey, fewer than half of persons 18 and older reported ever having been tested for HIV as of 2017 (Blackwell et al., 2019).",
      "clinicalRecommendationStatement": "The US Preventive Services Task Force recommends that clinicians screen for HIV infection in adolescents and adults aged 15 to 65 years. Younger adolescents and older adults who are at increased risk should also be screened (A Recommendation) (Moyer, 2013).\n\nSince 2006, the CDC has recommended routine opt-out HIV screening (i.e., patient is notified that testing will be performed unless the patient declines) in healthcare facilities of adolescents and adults 13-64 years of age and HIV diagnostic testing of adolescents and adults with clinical signs or symptoms consistent with HIV infection (Centers for Disease Control and Prevention, 2006).",
      "improvementNotation": "increase",
      "guidance": "This measure evaluates the proportion of patients aged 15 to 65 at the start of the measurement period who have documentation of having received an HIV test at least once on or after their 15th birthday and before their 66th birthday. In order to satisfy the measure, the reporting provider must have documentation of the administration of the laboratory test present in the patient's medical record. In cases where the HIV test was performed elsewhere, providers cannot rely on patient attestation or self-report to meet the measure requirements, as previous research has shown that patient self-report is an unreliable indicator of previous HIV testing history. Rather, providers must request documentation of those test results. If such documentation is not available, the patient should be considered still eligible for HIV screening. If such documentation is available, but cannot be provided in a standardized, structured format (such that the lab test and results can be readily incorporated as structured data within the EHR), providers should enter the information into their EHR as a laboratory test in a manner consistent with the EHR in use. If the specific Human Immunodeficiency Virus (HIV) Laboratory Test LOINC code of the test is not known, the entry should use the more generic code LOINC panel code [75622-1].",
      "group": [ {
        "identifier": {
          "value": "group-1"
        },
        "population": [ {
          "identifier": {
            "value": "initial-population-identifier"
          },
          "code": {
            "coding": [ {
              "system": "http://terminology.hl7.org/CodeSystem/measure-population",
              "code": "initial-population",
              "display": "Initial Population"
            } ]
          },
          "criteria": "Initial Population"
        }, {
          "identifier": {
            "value": "numerator-identifier"
          },
          "code": {
            "coding": [ {
              "system": "http://terminology.hl7.org/CodeSystem/measure-population",
              "code": "numerator",
              "display": "Numerator"
            } ]
          },
          "criteria": "Numerator"
        }, {
          "identifier": {
            "value": "denominator-identifier"
          },
          "code": {
            "coding": [ {
              "system": "http://terminology.hl7.org/CodeSystem/measure-population",
              "code": "denominator",
              "display": "Denominator"
            } ]
          },
          "criteria": "Denominator"
        }, {
          "identifier": {
            "value": "denominator-exclusions-identifier"
          },
          "code": {
            "coding": [ {
              "system": "http://terminology.hl7.org/CodeSystem/measure-population",
              "code": "denominator-exclusion",
              "display": "Denominator Exclusion"
            } ]
          },
          "criteria": "Denominator Exclusion"
        } ]
      } ],
      "supplementalData": [ {
        "identifier": {
          "value": "sde-ethnicity"
        },
        "usage": [ {
          "coding": [ {
            "system": "http://hl7.org/fhir/measure-data-usage",
            "code": "supplemental-data"
          } ]
        } ],
        "criteria": "SDE Ethnicity"
      }, {
        "identifier": {
          "value": "sde-payer"
        },
        "usage": [ {
          "coding": [ {
            "system": "http://hl7.org/fhir/measure-data-usage",
            "code": "supplemental-data"
          } ]
        } ],
        "criteria": "SDE Payer"
      }, {
        "identifier": {
          "value": "sde-race"
        },
        "usage": [ {
          "coding": [ {
            "system": "http://hl7.org/fhir/measure-data-usage",
            "code": "supplemental-data"
          } ]
        } ],
        "criteria": "SDE Race"
      }, {
        "identifier": {
          "value": "sde-sex"
        },
        "usage": [ {
          "coding": [ {
            "system": "http://hl7.org/fhir/measure-data-usage",
            "code": "supplemental-data"
          } ]
        } ],
        "criteria": "SDE Sex"
      } ]
    },
    "request": {
      "method": "PUT",
      "url": "Measure/measure-EXM349-FHIR3-2.9.000/_history/2"
    }
  }, {
    "resource": {
      "resourceType": "Bundle",
      "id": "tests-Patient-bundle",
      "type": "transaction",
      "entry": [ {
        "resource": {
          "resourceType": "Patient",
          "id": "numer-EXM349-FHIR3",
          "meta": {
            "profile": [ "http://hl7.org/fhir/us/core/StructureDefinition/us-core-patient" ]
          },
          "extension": [ {
            "url": "http://hl7.org/fhir/us/core/StructureDefinition/us-core-race",
            "extension": [ {
              "url": "ombCategory",
              "valueCoding": {
                "system": "urn:oid:2.16.840.1.113883.6.238",
                "code": "2106-3",
                "display": "White"
              }
            } ]
          }, {
            "url": "http://hl7.org/fhir/us/core/StructureDefinition/us-core-ethnicity",
            "extension": [ {
              "url": "ombCategory",
              "valueCoding": {
                "system": "urn:oid:2.16.840.1.113883.6.238",
                "code": "2186-5",
                "display": "Not Hispanic or Latino"
              }
            } ]
          } ],
          "identifier": [ {
            "use": "usual",
            "type": {
              "coding": [ {
                "system": "http://terminology.hl7.org/CodeSystem/v2-0203",
                "code": "MR",
                "display": "Medical Record Number"
              } ]
            },
            "system": "http://hospital.smarthealthit.org",
            "value": "9999999911"
          } ],
          "name": [ {
            "family": "Jones",
            "given": [ "Louise" ]
          } ],
          "gender": "female",
          "birthDate": "1995-11-21"
        },
        "request": {
          "method": "PUT",
          "url": "Patient/numer-EXM349-FHIR3"
        }
      } ]
    },
    "request": {
      "method": "PUT",
      "url": "tests-Patient-bundle"
    }
  } ]
}