{
  "resourceType": "Bundle",
  "id": "Florence-Richards-Wise-433-Encounter-5622",
  "type": "transaction",
  "entry": [
    {
      "fullUrl": "http://localhost:8080/cqf-ruler/baseDstu3/Encounter/Encounter-5622",
      "resource": {
        "resourceType": "Encounter",
        "id": "Encounter-5622",
        "meta": {
          "profile": [
            "http://hl7.org/fhir/us/hedis/StructureDefinition/hedis-encounter"
          ]
        },
        "extension": [
          {
            "url": "http://mihin.org/extension/copyright",
            "valueString": "Copyright 2014-2018 Michigan Health Information Network Shared Services. Licensed under the Apache License, Version 2.0 (the 'License'); you may not use this file except in compliance with the License. You may obtain a copy of the License at  http://www.apache.org/licenses/LICENSE-2.0.  Unless required by applicable law or agreed to in writing, software distributed under the License is distributed on an 'AS IS' BASIS, WITHOUT WARRANTIES OR CONDITIONS OF ANY KIND, either express or implied. See the License for the specific language governing permissions and limitations under the License."
          }
        ],
        "status": "finished",
        "class": {
          "system": "http://hl7.org/fhir/encounter-class",
          "code": "ambulatory",
          "display": "ambulatory"
        },
        "type": [
          {
            "coding": [
              {
                "system": "http://www.ama-assn.org/go/cpt",
                "code": "99385",
                "display": "Combined Office Visits"
              }
            ]
          }
        ],
        "subject": {
          "reference": "Patient/Patient-433",
          "display": "Florence Richards Wise"
        },
        "participant": [
          {
            "period": {
              "start": "2020-03-12T03:02:00-04:00",
              "end": "2020-03-12T03:02:00-04:00"
            },
            "individual": {
              "reference": "Practitioner/Practitioner-40",
              "display": "Rose Diane Brock MD"
            }
          }
        ],
        "period": {
          "start": "2020-03-12T03:02:00-04:00",
          "end": "2020-03-12T03:02:00-04:00"
        },
        "location": [
          {
            "location": {
              "reference": "Location/Location-155",
              "display": "Community Family Hospital"
            }
          }
        ],
        "serviceProvider": {
          "reference": "Organization/Organization-1013",
          "display": "Community Family Hospital"
        }
      },
      "request": {
        "method": "PUT",
        "url": "http://localhost:8080/cqf-ruler/baseDstu3/Encounter/Encounter-5622"
      }
    },
    {
      "fullUrl": "http://localhost:8080/cqf-ruler/baseDstu3/Procedure/Procedure-156424",
      "resource": {
        "resourceType": "Procedure",
        "id": "Procedure-156424",
        "meta": {
          "profile": [
            "http://hl7.org/fhir/us/hedis/StructureDefinition/hedis-procedure"
          ]
        },
        "extension": [
          {
            "url": "http://mihin.org/extension/copyright",
            "valueString": "Copyright 2014-2018 Michigan Health Information Network Shared Services. Licensed under the Apache License, Version 2.0 (the 'License'); you may not use this file except in compliance with the License. You may obtain a copy of the License at  http://www.apache.org/licenses/LICENSE-2.0.  Unless required by applicable law or agreed to in writing, software distributed under the License is distributed on an 'AS IS' BASIS, WITHOUT WARRANTIES OR CONDITIONS OF ANY KIND, either express or implied. See the License for the specific language governing permissions and limitations under the License."
          }
        ],
        "identifier": [
          {
            "use": "official",
            "system": "mihin.org/fhir/sid/elementId",
            "value": "0ef6516b-423a-4b77-b5fb-b6f004b127b5"
          }
        ],
        "status": "completed",
        "code": {
          "coding": [
            {
              "system": "http://www.ama-assn.org/go/cpt",
              "code": "77062"
            }
          ]
        },
        "subject": {
          "reference": "Patient/Patient-433",
          "display": "Florence Richards Wise"
        },
        "context": {
          "reference": "Encounter/Encounter-5622",
          "display": "Ambulatory_Encounter"
        },
        "performedPeriod": {
          "start": "2020-03-12T03:02:00-04:00",
          "end": "2020-03-12T03:02:00-04:00"
        },
        "performer": [
          {
            "actor": {
              "reference": "Practitioner/Practitioner-40",
              "display": "Rose Diane Brock MD"
            }
          }
        ],
        "location": {
          "reference": "Location/Location-155",
          "display": "Community Family Hospital"
        }
      },
      "request": {
        "method": "PUT",
        "url": "http://localhost:8080/cqf-ruler/baseDstu3/Procedure/Procedure-156424"
      }
    },
    {
      "fullUrl": "http://localhost:8080/cqf-ruler/baseDstu3/Observation/Observation-156425",
      "resource": {
        "resourceType": "Observation",
        "id": "Observation-156425",
        "meta": {
          "profile": [
            "http://hl7.org/fhir/us/hedis/StructureDefinition/hedis-observation"
          ]
        },
        "extension": [
          {
            "url": "http://mihin.org/extension/copyright",
            "valueString": "Copyright 2014-2018 Michigan Health Information Network Shared Services. Licensed under the Apache License, Version 2.0 (the 'License'); you may not use this file except in compliance with the License. You may obtain a copy of the License at  http://www.apache.org/licenses/LICENSE-2.0.  Unless required by applicable law or agreed to in writing, software distributed under the License is distributed on an 'AS IS' BASIS, WITHOUT WARRANTIES OR CONDITIONS OF ANY KIND, either express or implied. See the License for the specific language governing permissions and limitations under the License."
          }
        ],
        "identifier": [
          {
            "use": "official",
            "system": "mihin.org/fhir/sid/elementId",
            "value": "257533fc-72de-49a7-97f1-ac4fc29489c1"
          }
        ],
        "status": "final",
        "category": [
          {
            "coding": [
              {
                "system": "http://hl7.org/fhir/observation-category",
                "code": "exam",
                "display": "Exam"
              }
            ]
          }
        ],
        "code": {
          "coding": [
            {
              "system": "http://snomed.info/sct",
              "code": "168749009",
              "display": "Mammography normal (finding)"
            }
          ]
        },
        "subject": {
          "reference": "Patient/Patient-433",
          "display": "Florence Richards Wise"
        },
        "context": {
          "reference": "Encounter/Encounter-5622",
          "display": "Ambulatory_Encounter"
        },
        "effectiveDateTime": "2020-03-12T03:02:00-04:00",
        "performer": [
          {
            "reference": "Practitioner/Practitioner-40",
            "display": "Rose Diane Brock MD"
          }
        ],
        "valueString": "NEGATIVE"
      },
      "request": {
        "method": "PUT",
        "url": "http://localhost:8080/cqf-ruler/baseDstu3/Observation/Observation-156425"
      }
    },
    {
      "fullUrl": "http://localhost:8080/cqf-ruler/baseDstu3/Observation/Observation-156427",
      "resource": {
        "resourceType": "Observation",
        "id": "Observation-156427",
        "meta": {
          "profile": [
            "http://hl7.org/fhir/us/hedis/StructureDefinition/hedis-observation"
          ]
        },
        "extension": [
          {
            "url": "http://mihin.org/extension/copyright",
            "valueString": "Copyright 2014-2018 Michigan Health Information Network Shared Services. Licensed under the Apache License, Version 2.0 (the 'License'); you may not use this file except in compliance with the License. You may obtain a copy of the License at  http://www.apache.org/licenses/LICENSE-2.0.  Unless required by applicable law or agreed to in writing, software distributed under the License is distributed on an 'AS IS' BASIS, WITHOUT WARRANTIES OR CONDITIONS OF ANY KIND, either express or implied. See the License for the specific language governing permissions and limitations under the License."
          }
        ],
        "identifier": [
          {
            "use": "official",
            "system": "mihin.org/fhir/sid/elementId",
            "value": "9254d806-675b-4366-b428-17e9cdbdcfc5"
          }
        ],
        "status": "final",
        "category": [
          {
            "coding": [
              {
                "system": "http://hl7.org/fhir/observation-category",
                "code": "exam",
                "display": "Exam"
              }
            ]
          }
        ],
        "code": {
          "coding": [
            {
              "system": "http://snomed.info/sct",
              "code": "397145000",
              "display": "Mammography assessment (Category 5) - Highly suggestive of malignancy"
            }
          ]
        },
        "subject": {
          "reference": "Patient/Patient-433",
          "display": "Florence Richards Wise"
        },
        "context": {
          "reference": "Encounter/Encounter-5622",
          "display": "Ambulatory_Encounter"
        },
        "effectiveDateTime": "2020-03-12T03:02:00-04:00",
        "performer": [
          {
            "reference": "Practitioner/Practitioner-40",
            "display": "Rose Diane Brock MD"
          }
        ],
        "valueString": "POSITIVE"
      },
      "request": {
        "method": "PUT",
        "url": "http://localhost:8080/cqf-ruler/baseDstu3/Observation/Observation-156427"
      }
    },
    {
      "fullUrl": "http://localhost:8080/cqf-ruler/baseDstu3/DiagnosticReport/DiagnosticReport-156428",
      "resource": {
        "resourceType": "DiagnosticReport",
        "id": "DiagnosticReport-156428",
        "meta": {
          "profile": [
            "http://hl7.org/fhir/us/hedis/StructureDefinition/hedis-diagnosticreport"
          ]
        },
        "extension": [
          {
            "url": "http://mihin.org/extension/copyright",
            "valueString": "Copyright 2014-2018 Michigan Health Information Network Shared Services. Licensed under the Apache License, Version 2.0 (the 'License'); you may not use this file except in compliance with the License. You may obtain a copy of the License at  http://www.apache.org/licenses/LICENSE-2.0.  Unless required by applicable law or agreed to in writing, software distributed under the License is distributed on an 'AS IS' BASIS, WITHOUT WARRANTIES OR CONDITIONS OF ANY KIND, either express or implied. See the License for the specific language governing permissions and limitations under the License."
          }
        ],
        "identifier": [
          {
            "use": "official",
            "system": "mihin.org/fhir/sid/elementId",
            "value": "7e100038-aa92-4c4c-be67-2bde3e428671"
          }
        ],
        "status": "final",
        "code": {
          "coding": [
            {
              "system": "http://loinc.org",
              "code": "46339-8",
              "display": "Breast - unilateral Mammogram"
            }
          ]
        },
        "subject": {
          "reference": "Patient/Patient-433",
          "display": "Florence Richards Wise"
        },
        "context": {
          "reference": "Encounter/Encounter-5622",
          "display": "Ambulatory_Encounter"
        },
        "effectivePeriod": {
          "start": "2020-03-12T03:02:00-04:00",
          "end": "2020-03-12T03:02:00-04:00"
        },
        "issued": "2020-03-12T03:02:00.000-04:00",
        "result": [
          {
            "reference": "Observation/Observation-156427",
            "display": "Breast_Cancer_Report_Observation_1"
          }
        ]
      },
      "request": {
        "method": "PUT",
        "url": "http://localhost:8080/cqf-ruler/baseDstu3/DiagnosticReport/DiagnosticReport-156428"
      }
    }
  ]
}