{
  "resourceType": "Bundle",
  "id": "Bobbie-Pearl-Oneill-431-Encounter-5792",
  "type": "transaction",
  "entry": [
    {
      "fullUrl": "http://localhost:8080/cqf-ruler/baseDstu3/Encounter/Encounter-5792",
      "resource": {
        "resourceType": "Encounter",
        "id": "Encounter-5792",
        "meta": {
          "profile": [
            "http://hl7.org/fhir/us/hedis/StructureDefinition/hedis-encounter"
          ]
        },
        "extension": [
          {
            "url": "http://mihin.org/extension/copyright",
            "valueString": "Copyright 2014-2018 Michigan Health Information Network Shared Services. Licensed under the Apache License, Version 2.0 (the 'License'); you may not use this file except in compliance with the License. You may obtain a copy of the License at  http://www.apache.org/licenses/LICENSE-2.0.  Unless required by applicable law or agreed to in writing, software distributed under the License is distributed on an 'AS IS' BASIS, WITHOUT WARRANTIES OR CONDITIONS OF ANY KIND, either express or implied. See the License for the specific language governing permissions and limitations under the License."
          }
        ],
        "status": "finished",
        "class": {
          "system": "http://hl7.org/fhir/encounter-class",
          "code": "ambulatory",
          "display": "ambulatory"
        },
        "type": [
          {
            "coding": [
              {
                "system": "http://snomed.info/sct",
                "code": "428191000124101",
                "display": "Documentation of current medications"
              }
            ]
          }
        ],
        "subject": {
          "reference": "Patient/Patient-431",
          "display": "Bobbie Pearl Oneill"
        },
        "participant": [
          {
            "period": {
              "start": "2020-04-08T00:00:00-04:00",
              "end": "2020-04-08T00:00:00-04:00"
            },
            "individual": {
              "reference": "Practitioner/Practitioner-77",
              "display": "Doris Norma Dickson MD"
            }
          }
        ],
        "period": {
          "start": "2020-04-08T00:00:00-04:00",
          "end": "2020-04-08T00:00:00-04:00"
        },
        "location": [
          {
            "location": {
              "reference": "Location/Location-212",
              "display": "Westland Memorial Hospital"
            }
          }
        ],
        "serviceProvider": {
          "reference": "Organization/Organization-1023",
          "display": "Westland Memorial Hospital"
        }
      },
      "request": {
        "method": "PUT",
        "url": "http://localhost:8080/cqf-ruler/baseDstu3/Encounter/Encounter-5792"
      }
    },
    {
      "fullUrl": "http://localhost:8080/cqf-ruler/baseDstu3/Task/Task-159901",
      "resource": {
        "resourceType": "Task",
        "id": "Task-159901",
        "extension": [
          {
            "url": "http://mihin.org/extension/copyright",
            "valueString": "Copyright 2014-2018 Michigan Health Information Network Shared Services. Licensed under the Apache License, Version 2.0 (the 'License'); you may not use this file except in compliance with the License. You may obtain a copy of the License at  http://www.apache.org/licenses/LICENSE-2.0.  Unless required by applicable law or agreed to in writing, software distributed under the License is distributed on an 'AS IS' BASIS, WITHOUT WARRANTIES OR CONDITIONS OF ANY KIND, either express or implied. See the License for the specific language governing permissions and limitations under the License."
          }
        ],
        "status": "accepted",
        "intent": "original-order",
        "code": {
          "coding": [
            {
              "system": "SNOMED-CT",
              "code": "430193006",
              "display": "Medication Reconciliation (procedure)"
            }
          ]
        },
        "description": "Care_Plan_Start Task 1",
        "for": {
          "reference": "Patient/Patient-431",
          "display": "Bobbie Pearl Oneill"
        },
        "context": {
          "reference": "Encounter/Encounter-5792",
          "display": "Ambulatory_Encounter"
        },
        "executionPeriod": {
          "start": "2020-04-08T00:00:00-04:00",
          "end": "2020-04-08T00:00:00-04:00"
        },
        "authoredOn": "2020-04-08T00:00:00-04:00",
        "requester": {
          "agent": {
            "reference": "Practitioner/Practitioner-77",
            "display": "Doris Norma Dickson MD"
          },
          "onBehalfOf": {
            "reference": "Organization/Organization-1023",
            "display": "Westland Memorial Hospital"
          }
        }
      },
      "request": {
        "method": "PUT",
        "url": "http://localhost:8080/cqf-ruler/baseDstu3/Task/Task-159901"
      }
    },
    {
      "fullUrl": "http://localhost:8080/cqf-ruler/baseDstu3/CarePlan/CarePlan-159900",
      "resource": {
        "resourceType": "CarePlan",
        "id": "CarePlan-159900",
        "extension": [
          {
            "url": "http://mihin.org/extension/copyright",
            "valueString": "Copyright 2014-2018 Michigan Health Information Network Shared Services. Licensed under the Apache License, Version 2.0 (the 'License'); you may not use this file except in compliance with the License. You may obtain a copy of the License at  http://www.apache.org/licenses/LICENSE-2.0.  Unless required by applicable law or agreed to in writing, software distributed under the License is distributed on an 'AS IS' BASIS, WITHOUT WARRANTIES OR CONDITIONS OF ANY KIND, either express or implied. See the License for the specific language governing permissions and limitations under the License."
          }
        ],
        "identifier": [
          {
            "use": "official",
            "system": "mihin.org/fhir/sid/elementId",
            "value": "7d245e13-5791-406a-9d39-0a09df658373"
          }
        ],
        "status": "active",
        "category": [
          {
            "coding": [
              {
                "system": "http://snomed.info/sct",
                "code": "430193006",
                "display": "Medication Reconciliation (procedure)"
              }
            ]
          }
        ],
        "subject": {
          "reference": "Patient/Patient-431",
          "display": "Bobbie Pearl Oneill"
        },
        "context": {
          "reference": "Encounter/Encounter-5792",
          "display": "Ambulatory_Encounter"
        },
        "period": {
          "start": "2020-04-08T00:00:00-04:00",
          "end": "2020-04-08T00:00:00-04:00"
        },
        "author": [
          {
            "reference": "Practitioner/Practitioner-77",
            "display": "Doris Norma Dickson MD"
          }
        ],
        "activity": [
          {
            "reference": {
              "reference": "Task/Task-159901",
              "display": "Care_Plan_Start Task 1"
            }
          }
        ]
      },
      "request": {
        "method": "PUT",
        "url": "http://localhost:8080/cqf-ruler/baseDstu3/CarePlan/CarePlan-159900"
      }
    },
    {
      "fullUrl": "http://localhost:8080/cqf-ruler/baseDstu3/Procedure/Procedure-159902",
      "resource": {
        "resourceType": "Procedure",
        "id": "Procedure-159902",
        "meta": {
          "profile": [
            "http://hl7.org/fhir/us/hedis/StructureDefinition/hedis-procedure"
          ]
        },
        "extension": [
          {
            "url": "http://mihin.org/extension/copyright",
            "valueString": "Copyright 2014-2018 Michigan Health Information Network Shared Services. Licensed under the Apache License, Version 2.0 (the 'License'); you may not use this file except in compliance with the License. You may obtain a copy of the License at  http://www.apache.org/licenses/LICENSE-2.0.  Unless required by applicable law or agreed to in writing, software distributed under the License is distributed on an 'AS IS' BASIS, WITHOUT WARRANTIES OR CONDITIONS OF ANY KIND, either express or implied. See the License for the specific language governing permissions and limitations under the License."
          }
        ],
        "identifier": [
          {
            "use": "official",
            "system": "mihin.org/fhir/sid/elementId",
            "value": "e4aa0ed4-ff39-499e-86a8-0c6d3f6e81b9"
          }
        ],
        "status": "completed",
        "code": {
          "coding": [
            {
              "system": "http://snomed.info/sct",
              "code": "430193006",
              "display": "Medication Reconciliation (procedure)"
            }
          ]
        },
        "subject": {
          "reference": "Patient/Patient-431",
          "display": "Bobbie Pearl Oneill"
        },
        "context": {
          "reference": "Encounter/Encounter-5792",
          "display": "Ambulatory_Encounter"
        },
        "performedPeriod": {
          "start": "2020-04-08T00:00:00-04:00",
          "end": "2020-04-08T00:00:00-04:00"
        },
        "performer": [
          {
            "actor": {
              "reference": "Practitioner/Practitioner-77",
              "display": "Doris Norma Dickson MD"
            }
          }
        ],
        "location": {
          "reference": "Location/Location-212",
          "display": "Westland Memorial Hospital"
        }
      },
      "request": {
        "method": "PUT",
        "url": "http://localhost:8080/cqf-ruler/baseDstu3/Procedure/Procedure-159902"
      }
    }
  ]
}