{
  "resourceType": "Bundle",
  "id": "Naomi-Hazel-Farrell-2679-Encounter-775",
  "type": "transaction",
  "entry": [
    {
      "fullUrl": "http://localhost:8080/cqf-ruler/baseDstu3/Encounter/Encounter-775",
      "resource": {
        "resourceType": "Encounter",
        "id": "Encounter-775",
        "meta": {
          "profile": [
            "http://hl7.org/fhir/us/hedis/StructureDefinition/hedis-encounter"
          ]
        },
        "extension": [
          {
            "url": "http://mihin.org/extension/copyright",
            "valueString": "Copyright 2014-2019 Michigan Health Information Network Shared Services. Licensed under the Apache License, Version 2.0 (the 'License'); you may not use this file except in compliance with the License. You may obtain a copy of the License at  http://www.apache.org/licenses/LICENSE-2.0.  Unless required by applicable law or agreed to in writing, software distributed under the License is distributed on an 'AS IS' BASIS, WITHOUT WARRANTIES OR CONDITIONS OF ANY KIND, either express or implied. See the License for the specific language governing permissions and limitations under the License."
          }
        ],
        "status": "finished",
        "class": {
          "system": "http://hl7.org/fhir/encounter-class",
          "code": "ambulatory",
          "display": "ambulatory"
        },
        "type": [
          {
            "coding": [
              {
                "system": "http://snomed.info/sct",
                "code": "428191000124101",
                "display": "Documentation of current medications"
              }
            ]
          }
        ],
        "subject": {
          "reference": "Patient/Patient-2679",
          "display": "Naomi Hazel Farrell"
        },
        "participant": [
          {
            "period": {
              "start": "2018-08-10T00:00:00-04:00",
              "end": "2018-08-10T00:00:00-04:00"
            },
            "individual": {
              "reference": "Practitioner/Practitioner-2216",
              "display": "Vernon Leonard McLean MD"
            }
          }
        ],
        "period": {
          "start": "2018-08-10T00:00:00-04:00",
          "end": "2018-08-10T00:00:00-04:00"
        },
        "location": [
          {
            "location": {
              "reference": "Location/Location-111",
              "display": "Windward General Hospital"
            }
          }
        ],
        "serviceProvider": {
          "reference": "Organization/Organization-1004",
          "display": "Windward General Hospital"
        }
      },
      "request": {
        "method": "PUT",
        "url": "http://localhost:8080/cqf-ruler/baseDstu3/Encounter/Encounter-775"
      }
    },
    {
      "fullUrl": "http://localhost:8080/cqf-ruler/baseDstu3/Task/Task-89601",
      "resource": {
        "resourceType": "Task",
        "id": "Task-89601",
        "extension": [
          {
            "url": "http://mihin.org/extension/copyright",
            "valueString": "Copyright 2014-2019 Michigan Health Information Network Shared Services. Licensed under the Apache License, Version 2.0 (the 'License'); you may not use this file except in compliance with the License. You may obtain a copy of the License at  http://www.apache.org/licenses/LICENSE-2.0.  Unless required by applicable law or agreed to in writing, software distributed under the License is distributed on an 'AS IS' BASIS, WITHOUT WARRANTIES OR CONDITIONS OF ANY KIND, either express or implied. See the License for the specific language governing permissions and limitations under the License."
          }
        ],
        "status": "accepted",
        "intent": "original-order",
        "code": {
          "coding": [
            {
              "system": "SNOMED-CT",
              "code": "430193006",
              "display": "Medication Reconciliation (procedure)"
            }
          ]
        },
        "description": "Care_Plan_Start Task 1",
        "for": {
          "reference": "Patient/Patient-2679",
          "display": "Naomi Hazel Farrell"
        },
        "context": {
          "reference": "Encounter/Encounter-775",
          "display": "Ambulatory_Encounter"
        },
        "executionPeriod": {
          "start": "2018-08-10T00:00:00-04:00",
          "end": "2018-08-10T00:00:00-04:00"
        },
        "authoredOn": "2018-08-10T00:00:00-04:00",
        "requester": {
          "agent": {
            "reference": "Practitioner/Practitioner-2216",
            "display": "Vernon Leonard McLean MD"
          },
          "onBehalfOf": {
            "reference": "Organization/Organization-1004",
            "display": "Windward General Hospital"
          }
        }
      },
      "request": {
        "method": "PUT",
        "url": "http://localhost:8080/cqf-ruler/baseDstu3/Task/Task-89601"
      }
    },
    {
      "fullUrl": "http://localhost:8080/cqf-ruler/baseDstu3/CarePlan/CarePlan-89600",
      "resource": {
        "resourceType": "CarePlan",
        "id": "CarePlan-89600",
        "extension": [
          {
            "url": "http://mihin.org/extension/copyright",
            "valueString": "Copyright 2014-2019 Michigan Health Information Network Shared Services. Licensed under the Apache License, Version 2.0 (the 'License'); you may not use this file except in compliance with the License. You may obtain a copy of the License at  http://www.apache.org/licenses/LICENSE-2.0.  Unless required by applicable law or agreed to in writing, software distributed under the License is distributed on an 'AS IS' BASIS, WITHOUT WARRANTIES OR CONDITIONS OF ANY KIND, either express or implied. See the License for the specific language governing permissions and limitations under the License."
          }
        ],
        "identifier": [
          {
            "use": "official",
            "system": "mihin.org/fhir/sid/elementId",
            "value": "0a6c159c-0751-4bb9-913d-d8983f4bbb5b"
          }
        ],
        "status": "active",
        "category": [
          {
            "coding": [
              {
                "system": "http://snomed.info/sct",
                "code": "430193006",
                "display": "Medication Reconciliation (procedure)"
              }
            ]
          }
        ],
        "subject": {
          "reference": "Patient/Patient-2679",
          "display": "Naomi Hazel Farrell"
        },
        "context": {
          "reference": "Encounter/Encounter-775",
          "display": "Ambulatory_Encounter"
        },
        "period": {
          "start": "2018-08-10T00:00:00-04:00",
          "end": "2018-08-10T00:00:00-04:00"
        },
        "author": [
          {
            "reference": "Practitioner/Practitioner-2216",
            "display": "Vernon Leonard McLean MD"
          }
        ],
        "activity": [
          {
            "reference": {
              "reference": "Task/Task-89601",
              "display": "Care_Plan_Start Task 1"
            }
          }
        ]
      },
      "request": {
        "method": "PUT",
        "url": "http://localhost:8080/cqf-ruler/baseDstu3/CarePlan/CarePlan-89600"
      }
    },
    {
      "fullUrl": "http://localhost:8080/cqf-ruler/baseDstu3/Procedure/Procedure-89602",
      "resource": {
        "resourceType": "Procedure",
        "id": "Procedure-89602",
        "meta": {
          "profile": [
            "http://hl7.org/fhir/us/hedis/StructureDefinition/hedis-procedure"
          ]
        },
        "extension": [
          {
            "url": "http://mihin.org/extension/copyright",
            "valueString": "Copyright 2014-2019 Michigan Health Information Network Shared Services. Licensed under the Apache License, Version 2.0 (the 'License'); you may not use this file except in compliance with the License. You may obtain a copy of the License at  http://www.apache.org/licenses/LICENSE-2.0.  Unless required by applicable law or agreed to in writing, software distributed under the License is distributed on an 'AS IS' BASIS, WITHOUT WARRANTIES OR CONDITIONS OF ANY KIND, either express or implied. See the License for the specific language governing permissions and limitations under the License."
          }
        ],
        "identifier": [
          {
            "use": "official",
            "system": "mihin.org/fhir/sid/elementId",
            "value": "dbaba0cb-2bc0-4f5c-9a28-f00532d57b23"
          }
        ],
        "status": "completed",
        "code": {
          "coding": [
            {
              "system": "http://snomed.info/sct",
              "code": "430193006",
              "display": "Medication Reconciliation (procedure)"
            }
          ]
        },
        "subject": {
          "reference": "Patient/Patient-2679",
          "display": "Naomi Hazel Farrell"
        },
        "context": {
          "reference": "Encounter/Encounter-775",
          "display": "Ambulatory_Encounter"
        },
        "performedPeriod": {
          "start": "2018-08-10T00:00:00-04:00",
          "end": "2018-08-10T00:00:00-04:00"
        },
        "performer": [
          {
            "actor": {
              "reference": "Practitioner/Practitioner-2216",
              "display": "Vernon Leonard McLean MD"
            }
          }
        ],
        "location": {
          "reference": "Location/Location-111",
          "display": "Windward General Hospital"
        }
      },
      "request": {
        "method": "PUT",
        "url": "http://localhost:8080/cqf-ruler/baseDstu3/Procedure/Procedure-89602"
      }
    },
    {
      "fullUrl": "http://localhost:8080/cqf-ruler/baseDstu3/MedicationStatement/MedicationStatement-89603",
      "resource": {
        "resourceType": "MedicationStatement",
        "id": "MedicationStatement-89603",
        "extension": [
          {
            "url": "http://mihin.org/extension/copyright",
            "valueString": "Copyright 2014-2019 Michigan Health Information Network Shared Services. Licensed under the Apache License, Version 2.0 (the 'License'); you may not use this file except in compliance with the License. You may obtain a copy of the License at  http://www.apache.org/licenses/LICENSE-2.0.  Unless required by applicable law or agreed to in writing, software distributed under the License is distributed on an 'AS IS' BASIS, WITHOUT WARRANTIES OR CONDITIONS OF ANY KIND, either express or implied. See the License for the specific language governing permissions and limitations under the License."
          }
        ],
        "context": {
          "reference": "Encounter/Encounter-775",
          "display": "Ambulatory_Encounter"
        },
        "status": "active",
        "category": {
          "coding": [
            {
              "system": "http://terminology.hl7.org/CodeSystem/medication-statement-category"
            }
          ]
        },
        "medicationCodeableConcept": {
          "coding": [
            {
              "system": "http://www.nlm.nih.gov/research/umls/rxnorm",
              "code": "861365",
              "display": "0.6 ML Fondaparinux sodium 12.5 MG/ML Prefilled Syringe"
            }
          ]
        },
        "effectivePeriod": {
          "start": "2018-08-10T00:00:00-04:00",
          "end": "2018-08-10T00:00:00-04:00"
        },
        "dateAsserted": "2018-08-10T00:00:00-04:00",
        "informationSource": {
          "reference": "Practitioner/Practitioner-2216",
          "display": "Vernon Leonard McLean MD"
        },
        "subject": {
          "reference": "Patient/Patient-2679",
          "display": "Naomi Hazel Farrell"
        },
        "reasonCode": [
          {
            "coding": [
              {
                "system": "http://www.icd10data.com/icd10pcs",
                "code": "0D1A0KP",
                "display": "Bypass Jejunum to Rectum with Nonautologous Tissue Substitute, Open Approach"
              }
            ]
          }
        ]
      },
      "request": {
        "method": "PUT",
        "url": "http://localhost:8080/cqf-ruler/baseDstu3/MedicationStatement/MedicationStatement-89603"
      }
    }
  ]
}