{
  "resourceType": "Bundle",
  "id": "tests-numer-EXM506-FHIR3-bundle",
  "type": "transaction",
  "entry": [ {
    "resource": {
      "resourceType": "Patient",
      "id": "numer-EXM506-FHIR3",
      "meta": {
        "profile": [ "http://hl7.org/fhir/us/core/StructureDefinition/us-core-patient" ]
      },
      "extension": [ {
        "url": "http://hl7.org/fhir/us/core/StructureDefinition/us-core-race",
        "extension": [ {
          "url": "ombCategory",
          "valueCoding": {
            "system": "urn:oid:2.16.840.1.113883.6.238",
            "code": "2106-3",
            "display": "White"
          }
        } ]
      }, {
        "url": "http://hl7.org/fhir/us/core/StructureDefinition/us-core-ethnicity",
        "extension": [ {
          "url": "ombCategory",
          "valueCoding": {
            "system": "urn:oid:2.16.840.1.113883.6.238",
            "code": "2186-5",
            "display": "Not Hispanic or Latino"
          }
        } ]
      } ],
      "identifier": [ {
        "use": "usual",
        "type": {
          "coding": [ {
            "system": "http://terminology.hl7.org/CodeSystem/v2-0203",
            "code": "MR",
            "display": "Medical Record Number"
          } ]
        },
        "system": "http://hospital.smarthealthit.org",
        "value": "9999999911"
      } ],
      "name": [ {
        "family": "Jones",
        "given": [ "Louise" ]
      } ],
      "gender": "female",
      "birthDate": "1971-11-21"
    },
    "request": {
      "method": "PUT",
      "url": "Patient/numer-EXM506-FHIR3"
    }
  }, {
    "resource": {
      "resourceType": "MeasureReport",
      "id": "measurereport-numer-EXM506-FHIR3",
      "contained": [ {
        "resourceType": "Bundle",
        "id": "4bc15806-5411-4411-9fd0-cb9a9058525b",
        "type": "collection",
        "entry": [ {
          "fullUrl": "Encounter/numer-EXM506-FHIR3-2",
          "resource": {
            "resourceType": "Encounter",
            "id": "numer-EXM506-FHIR3-2",
            "meta": {
              "profile": [ "http://hl7.org/fhir/us/core/StructureDefinition/us-core-encounter" ]
            },
            "status": "finished",
            "class": {
              "system": "http://terminology.hl7.org/CodeSystem/v3-ActCode",
              "code": "IMP",
              "display": "inpatient encounter"
            },
            "type": [ {
              "coding": [ {
                "system": "http://snomed.info/sct",
                "code": "32485007",
                "display": "Hospital admission (procedure)"
              } ]
            } ],
            "subject": {
              "reference": "Patient/numer-EXM506-FHIR3"
            },
            "period": {
              "start": "2019-08-21T00:00:00-06:00",
              "end": "2019-12-18T08:15:00-07:00"
            },
            "diagnosis": [ {
              "condition": {
                "reference": "Condition/numer-EXM506-FHIR3-1"
              },
              "role": {
                "coding": [ {
                  "system": "http://hl7.org/fhir/diagnosis-role",
                  "code": "billing",
                  "display": "Billing"
                } ]
              },
              "rank": 1
            } ],
            "hospitalization": {
              "dischargeDisposition": {
                "coding": [ {
                  "system": "http://snomed.info/sct",
                  "code": "306701001",
                  "display": "Discharge to community hospital (procedure)"
                } ]
              }
            }
          }
        }, {
          "fullUrl": "MedicationRequest/numer-EXM506-FHIR3-5",
          "resource": {
            "resourceType": "MedicationRequest",
            "id": "numer-EXM506-FHIR3-5",
            "meta": { },
            "status": "completed",
            "intent": "order",
            "category": {
              "coding": [ {
                "system": "http://hl7.org/fhir/medication-request-category",
                "code": "community",
                "display": "Community"
              } ]
            },
            "medicationCodeableConcept": {
              "coding": [ {
                "system": "http://www.nlm.nih.gov/research/umls/rxnorm",
                "code": "892516",
                "display": "Morphine Sulfate 10 MG Rectal Suppository"
              } ]
            },
            "subject": {
              "reference": "Patient/numer-EXM506-FHIR3"
            },
            "authoredOn": "2019-08-21T00:00:00-07:00"
          }
        }, {
          "fullUrl": "MedicationRequest/numer-EXM506-FHIR3-6",
          "resource": {
            "resourceType": "MedicationRequest",
            "id": "numer-EXM506-FHIR3-6",
            "meta": { },
            "status": "completed",
            "intent": "order",
            "category": {
              "coding": [ {
                "system": "http://hl7.org/fhir/medication-request-category",
                "code": "community",
                "display": "Community"
              } ]
            },
            "medicationCodeableConcept": {
              "coding": [ {
                "system": "http://www.nlm.nih.gov/research/umls/rxnorm",
                "code": "1666777",
                "display": "2 ML Midazolam 1 MG/ML Cartridge"
              } ]
            },
            "subject": {
              "reference": "Patient/numer-EXM506-FHIR3"
            },
            "authoredOn": "2019-12-18T08:14:00-07:00"
          }
        }, {
          "fullUrl": "MedicationRequest/numer-EXM506-FHIR3-7",
          "resource": {
            "resourceType": "MedicationRequest",
            "id": "numer-EXM506-FHIR3-7",
            "meta": { },
            "status": "completed",
            "intent": "order",
            "category": {
              "coding": [ {
                "system": "http://hl7.org/fhir/medication-request-category",
                "code": "community",
                "display": "Community"
              } ]
            },
            "medicationCodeableConcept": {
              "coding": [ {
                "system": "http://www.nlm.nih.gov/research/umls/rxnorm",
                "code": "1010600",
                "display": "Buprenorphine 2 MG / Naloxone 0.5 MG Oral Strip"
              } ]
            },
            "subject": {
              "reference": "Patient/numer-EXM506-FHIR3"
            },
            "authoredOn": "2019-08-21T00:00:00-08:00"
          }
        }, {
          "fullUrl": "Patient/numer-EXM506-FHIR3",
          "resource": {
            "resourceType": "Patient",
            "id": "numer-EXM506-FHIR3",
            "meta": {
              "profile": [ "http://hl7.org/fhir/us/core/StructureDefinition/us-core-patient" ]
            },
            "extension": [ {
              "url": "http://hl7.org/fhir/us/core/StructureDefinition/us-core-race",
              "extension": [ {
                "url": "ombCategory",
                "valueCoding": {
                  "system": "urn:oid:2.16.840.1.113883.6.238",
                  "code": "2106-3",
                  "display": "White"
                }
              } ]
            }, {
              "url": "http://hl7.org/fhir/us/core/StructureDefinition/us-core-ethnicity",
              "extension": [ {
                "url": "ombCategory",
                "valueCoding": {
                  "system": "urn:oid:2.16.840.1.113883.6.238",
                  "code": "2186-5",
                  "display": "Not Hispanic or Latino"
                }
              } ]
            } ],
            "identifier": [ {
              "use": "usual",
              "type": {
                "coding": [ {
                  "system": "http://terminology.hl7.org/CodeSystem/v2-0203",
                  "code": "MR",
                  "display": "Medical Record Number"
                } ]
              },
              "system": "http://hospital.smarthealthit.org",
              "value": "9999999911"
            } ],
            "name": [ {
              "family": "Jones",
              "given": [ "Louise" ]
            } ],
            "gender": "female",
            "birthDate": "1971-11-21"
          }
        }, {
          "fullUrl": "eec847b4-7402-48ef-8152-13ca4556adc7",
          "resource": {
            "resourceType": "List",
            "id": "eec847b4-7402-48ef-8152-13ca4556adc7",
            "title": "denominator",
            "entry": [ {
              "item": {
                "reference": "numer-EXM506-FHIR3-2"
              }
            }, {
              "item": {
                "reference": "numer-EXM506-FHIR3-5"
              }
            }, {
              "item": {
                "reference": "numer-EXM506-FHIR3-6"
              }
            }, {
              "item": {
                "reference": "numer-EXM506-FHIR3-7"
              }
            }, {
              "item": {
                "reference": "numer-EXM506-FHIR3"
              }
            } ]
          }
        }, {
          "fullUrl": "d1779ff8-486b-4561-ad0e-e4000c1b67bd",
          "resource": {
            "resourceType": "List",
            "id": "d1779ff8-486b-4561-ad0e-e4000c1b67bd",
            "title": "numerator",
            "entry": [ {
              "item": {
                "reference": "numer-EXM506-FHIR3-2"
              }
            }, {
              "item": {
                "reference": "numer-EXM506-FHIR3-5"
              }
            }, {
              "item": {
                "reference": "numer-EXM506-FHIR3-6"
              }
            }, {
              "item": {
                "reference": "numer-EXM506-FHIR3-7"
              }
            }, {
              "item": {
                "reference": "numer-EXM506-FHIR3"
              }
            } ]
          }
        }, {
          "fullUrl": "16c9614b-b369-4bba-bd27-45587b7ba1f5",
          "resource": {
            "resourceType": "List",
            "id": "16c9614b-b369-4bba-bd27-45587b7ba1f5",
            "title": "initial-population",
            "entry": [ {
              "item": {
                "reference": "numer-EXM506-FHIR3-2"
              }
            }, {
              "item": {
                "reference": "numer-EXM506-FHIR3-5"
              }
            }, {
              "item": {
                "reference": "numer-EXM506-FHIR3-6"
              }
            }, {
              "item": {
                "reference": "numer-EXM506-FHIR3-7"
              }
            }, {
              "item": {
                "reference": "numer-EXM506-FHIR3"
              }
            } ]
          }
        } ]
      } ],
      "status": "complete",
      "type": "individual",
      "measure": {
        "reference": "Measure/measure-EXM506-FHIR3-2.0.000"
      },
      "patient": {
        "reference": "Patient/numer-EXM506-FHIR3"
      },
      "period": {
        "start": "2018-12-31T17:00:00-07:00",
        "end": "2019-12-30T17:00:00-07:00"
      },
      "group": [ {
        "identifier": {
          "value": "group-1"
        },
        "population": [ {
          "code": {
            "coding": [ {
              "system": "http://terminology.hl7.org/CodeSystem/measure-population",
              "code": "initial-population",
              "display": "Initial Population"
            } ]
          },
          "count": 1
        }, {
          "code": {
            "coding": [ {
              "system": "http://terminology.hl7.org/CodeSystem/measure-population",
              "code": "numerator",
              "display": "Numerator"
            } ]
          },
          "count": 1
        }, {
          "code": {
            "coding": [ {
              "system": "http://terminology.hl7.org/CodeSystem/measure-population",
              "code": "denominator",
              "display": "Denominator"
            } ]
          },
          "count": 1
        }, {
          "code": {
            "coding": [ {
              "system": "http://terminology.hl7.org/CodeSystem/measure-population",
              "code": "denominator-exclusion",
              "display": "Denominator Exclusion"
            } ]
          },
          "count": 0
        } ],
        "measureScore": 1.0
      } ],
      "evaluatedResources": {
        "reference": "#4bc15806-5411-4411-9fd0-cb9a9058525b"
      }
    },
    "request": {
      "method": "PUT",
      "url": "MeasureReport/measurereport-numer-EXM506-FHIR3"
    }
  }, {
    "resource": {
      "resourceType": "Encounter",
      "id": "numer-EXM506-FHIR3-2",
      "meta": {
        "profile": [ "http://hl7.org/fhir/us/core/StructureDefinition/us-core-encounter" ]
      },
      "status": "finished",
      "class": {
        "system": "http://terminology.hl7.org/CodeSystem/v3-ActCode",
        "code": "IMP",
        "display": "inpatient encounter"
      },
      "type": [ {
        "coding": [ {
          "system": "http://snomed.info/sct",
          "code": "32485007",
          "display": "Hospital admission (procedure)"
        } ]
      } ],
      "subject": {
        "reference": "Patient/numer-EXM506-FHIR3"
      },
      "period": {
        "start": "2019-08-21T00:00:00-06:00",
        "end": "2019-12-18T08:15:00-07:00"
      },
      "diagnosis": [ {
        "condition": {
          "reference": "Condition/numer-EXM506-FHIR3-1"
        },
        "role": {
          "coding": [ {
            "system": "http://hl7.org/fhir/diagnosis-role",
            "code": "billing",
            "display": "Billing"
          } ]
        },
        "rank": 1
      } ],
      "hospitalization": {
        "dischargeDisposition": {
          "coding": [ {
            "system": "http://snomed.info/sct",
            "code": "306701001",
            "display": "Discharge to community hospital (procedure)"
          } ]
        }
      }
    },
    "request": {
      "method": "PUT",
      "url": "Encounter/numer-EXM506-FHIR3-2"
    }
  }, {
    "resource": {
      "resourceType": "Bundle",
      "id": "tests-MedicationRequest-bundle",
      "type": "transaction",
      "entry": [ {
        "resource": {
          "resourceType": "MedicationRequest",
          "id": "numer-EXM506-FHIR3-5",
          "status": "completed",
          "intent": "order",
          "category": {
            "coding": [ {
              "system": "http://hl7.org/fhir/medication-request-category",
              "code": "community",
              "display": "Community"
            } ]
          },
          "medicationCodeableConcept": {
            "coding": [ {
              "system": "http://www.nlm.nih.gov/research/umls/rxnorm",
              "code": "892516",
              "display": "Morphine Sulfate 10 MG Rectal Suppository"
            } ]
          },
          "subject": {
            "reference": "Patient/numer-EXM506-FHIR3"
          },
          "authoredOn": "2019-08-21T00:00:00-07:00"
        },
        "request": {
          "method": "PUT",
          "url": "MedicationRequest/numer-EXM506-FHIR3-5"
        }
      }, {
        "resource": {
          "resourceType": "MedicationRequest",
          "id": "numer-EXM506-FHIR3-7",
          "status": "completed",
          "intent": "order",
          "category": {
            "coding": [ {
              "system": "http://hl7.org/fhir/medication-request-category",
              "code": "community",
              "display": "Community"
            } ]
          },
          "medicationCodeableConcept": {
            "coding": [ {
              "system": "http://www.nlm.nih.gov/research/umls/rxnorm",
              "code": "1010600",
              "display": "Buprenorphine 2 MG / Naloxone 0.5 MG Oral Strip"
            } ]
          },
          "subject": {
            "reference": "Patient/numer-EXM506-FHIR3"
          },
          "authoredOn": "2019-08-21T00:00:00-08:00"
        },
        "request": {
          "method": "PUT",
          "url": "MedicationRequest/numer-EXM506-FHIR3-7"
        }
      }, {
        "resource": {
          "resourceType": "MedicationRequest",
          "id": "numer-EXM506-FHIR3-6",
          "status": "completed",
          "intent": "order",
          "category": {
            "coding": [ {
              "system": "http://hl7.org/fhir/medication-request-category",
              "code": "community",
              "display": "Community"
            } ]
          },
          "medicationCodeableConcept": {
            "coding": [ {
              "system": "http://www.nlm.nih.gov/research/umls/rxnorm",
              "code": "1666777",
              "display": "2 ML Midazolam 1 MG/ML Cartridge"
            } ]
          },
          "subject": {
            "reference": "Patient/numer-EXM506-FHIR3"
          },
          "authoredOn": "2019-12-18T08:14:00-07:00"
        },
        "request": {
          "method": "PUT",
          "url": "MedicationRequest/numer-EXM506-FHIR3-6"
        }
      } ]
    },
    "request": {
      "method": "PUT",
      "url": "tests-MedicationRequest-bundle"
    }
  }, {
    "resource": {
      "resourceType": "Bundle",
      "id": "tests-Encounter-bundle",
      "type": "transaction",
      "entry": [ {
        "resource": {
          "resourceType": "Encounter",
          "id": "numer-EXM506-FHIR3-2",
          "meta": {
            "profile": [ "http://hl7.org/fhir/us/core/StructureDefinition/us-core-encounter" ]
          },
          "status": "finished",
          "class": {
            "system": "http://terminology.hl7.org/CodeSystem/v3-ActCode",
            "code": "IMP",
            "display": "inpatient encounter"
          },
          "type": [ {
            "coding": [ {
              "system": "http://snomed.info/sct",
              "code": "32485007",
              "display": "Hospital admission (procedure)"
            } ]
          } ],
          "subject": {
            "reference": "Patient/numer-EXM506-FHIR3"
          },
          "period": {
            "start": "2019-08-21T00:00:00-06:00",
            "end": "2019-12-18T08:15:00-07:00"
          },
          "diagnosis": [ {
            "condition": {
              "reference": "Condition/numer-EXM506-FHIR3-1"
            },
            "role": {
              "coding": [ {
                "system": "http://hl7.org/fhir/diagnosis-role",
                "code": "billing",
                "display": "Billing"
              } ]
            },
            "rank": 1
          } ],
          "hospitalization": {
            "dischargeDisposition": {
              "coding": [ {
                "system": "http://snomed.info/sct",
                "code": "306701001",
                "display": "Discharge to community hospital (procedure)"
              } ]
            }
          }
        },
        "request": {
          "method": "PUT",
          "url": "Encounter/numer-EXM506-FHIR3-2"
        }
      } ]
    },
    "request": {
      "method": "PUT",
      "url": "tests-Encounter-bundle"
    }
  }, {
    "resource": {
      "resourceType": "Bundle",
      "id": "tests-Patient-bundle",
      "type": "transaction",
      "entry": [ {
        "resource": {
          "resourceType": "Patient",
          "id": "numer-EXM506-FHIR3",
          "meta": {
            "profile": [ "http://hl7.org/fhir/us/core/StructureDefinition/us-core-patient" ]
          },
          "extension": [ {
            "url": "http://hl7.org/fhir/us/core/StructureDefinition/us-core-race",
            "extension": [ {
              "url": "ombCategory",
              "valueCoding": {
                "system": "urn:oid:2.16.840.1.113883.6.238",
                "code": "2106-3",
                "display": "White"
              }
            } ]
          }, {
            "url": "http://hl7.org/fhir/us/core/StructureDefinition/us-core-ethnicity",
            "extension": [ {
              "url": "ombCategory",
              "valueCoding": {
                "system": "urn:oid:2.16.840.1.113883.6.238",
                "code": "2186-5",
                "display": "Not Hispanic or Latino"
              }
            } ]
          } ],
          "identifier": [ {
            "use": "usual",
            "type": {
              "coding": [ {
                "system": "http://terminology.hl7.org/CodeSystem/v2-0203",
                "code": "MR",
                "display": "Medical Record Number"
              } ]
            },
            "system": "http://hospital.smarthealthit.org",
            "value": "9999999911"
          } ],
          "name": [ {
            "family": "Jones",
            "given": [ "Louise" ]
          } ],
          "gender": "female",
          "birthDate": "1971-11-21"
        },
        "request": {
          "method": "PUT",
          "url": "Patient/numer-EXM506-FHIR3"
        }
      } ]
    },
    "request": {
      "method": "PUT",
      "url": "tests-Patient-bundle"
    }
  }, {
    "resource": {
      "resourceType": "MedicationRequest",
      "id": "numer-EXM506-FHIR3-6",
      "status": "completed",
      "intent": "order",
      "category": {
        "coding": [ {
          "system": "http://hl7.org/fhir/medication-request-category",
          "code": "community",
          "display": "Community"
        } ]
      },
      "medicationCodeableConcept": {
        "coding": [ {
          "system": "http://www.nlm.nih.gov/research/umls/rxnorm",
          "code": "1666777",
          "display": "2 ML Midazolam 1 MG/ML Cartridge"
        } ]
      },
      "subject": {
        "reference": "Patient/numer-EXM506-FHIR3"
      },
      "authoredOn": "2019-12-18T08:14:00-07:00"
    },
    "request": {
      "method": "PUT",
      "url": "MedicationRequest/numer-EXM506-FHIR3-6"
    }
  }, {
    "resource": {
      "resourceType": "MedicationRequest",
      "id": "numer-EXM506-FHIR3-7",
      "status": "completed",
      "intent": "order",
      "category": {
        "coding": [ {
          "system": "http://hl7.org/fhir/medication-request-category",
          "code": "community",
          "display": "Community"
        } ]
      },
      "medicationCodeableConcept": {
        "coding": [ {
          "system": "http://www.nlm.nih.gov/research/umls/rxnorm",
          "code": "1010600",
          "display": "Buprenorphine 2 MG / Naloxone 0.5 MG Oral Strip"
        } ]
      },
      "subject": {
        "reference": "Patient/numer-EXM506-FHIR3"
      },
      "authoredOn": "2019-08-21T00:00:00-08:00"
    },
    "request": {
      "method": "PUT",
      "url": "MedicationRequest/numer-EXM506-FHIR3-7"
    }
  }, {
    "resource": {
      "resourceType": "MedicationRequest",
      "id": "numer-EXM506-FHIR3-5",
      "status": "completed",
      "intent": "order",
      "category": {
        "coding": [ {
          "system": "http://hl7.org/fhir/medication-request-category",
          "code": "community",
          "display": "Community"
        } ]
      },
      "medicationCodeableConcept": {
        "coding": [ {
          "system": "http://www.nlm.nih.gov/research/umls/rxnorm",
          "code": "892516",
          "display": "Morphine Sulfate 10 MG Rectal Suppository"
        } ]
      },
      "subject": {
        "reference": "Patient/numer-EXM506-FHIR3"
      },
      "authoredOn": "2019-08-21T00:00:00-07:00"
    },
    "request": {
      "method": "PUT",
      "url": "MedicationRequest/numer-EXM506-FHIR3-5"
    }
  } ]
}