{
  "resourceType": "Bundle",
  "id": "EXM108-FHIR3-7.4.000-bundle",
  "type": "transaction",
  "entry": [ {
    "resource": {
      "resourceType": "Patient",
      "id": "numer-EXM108-FHIR3",
      "meta": {
        "profile": [ "http://hl7.org/fhir/us/core/StructureDefinition/us-core-patient" ]
      },
      "extension": [ {
        "url": "http://hl7.org/fhir/us/core/StructureDefinition/us-core-race",
        "extension": [ {
          "url": "ombCategory",
          "valueCoding": {
            "system": "urn:oid:2.16.840.1.113883.6.238",
            "code": "2106-3",
            "display": "White"
          }
        } ]
      }, {
        "url": "http://hl7.org/fhir/us/core/StructureDefinition/us-core-ethnicity",
        "extension": [ {
          "url": "ombCategory",
          "valueCoding": {
            "system": "urn:oid:2.16.840.1.113883.6.238",
            "code": "2186-5",
            "display": "Not Hispanic or Latino"
          }
        } ]
      } ],
      "identifier": [ {
        "use": "usual",
        "type": {
          "coding": [ {
            "system": "http://terminology.hl7.org/CodeSystem/v2-0203",
            "code": "MR",
            "display": "Medical Record Number"
          } ]
        },
        "system": "http://hospital.smarthealthit.org",
        "value": "999999997"
      } ],
      "name": [ {
        "family": "Smith",
        "given": [ "Jill" ]
      } ],
      "gender": "female",
      "birthDate": "1963-09-13"
    },
    "request": {
      "method": "PUT",
      "url": "Patient/numer-EXM108-FHIR3"
    }
  }, {
    "resource": {
      "resourceType": "Bundle",
      "id": "tests-Device-bundle",
      "type": "transaction",
      "entry": [ {
        "resource": {
          "resourceType": "Device",
          "id": "numer-EXM108-FHIR3-5",
          "type": {
            "coding": [ {
              "system": "http://snomed.info/sct",
              "code": "442023007",
              "display": "Venous foot pump, device (physical object)"
            } ]
          },
          "patient": {
            "reference": "Patient/numer-EXM108-FHIR3"
          }
        },
        "request": {
          "method": "PUT",
          "url": "Device/numer-EXM108-FHIR3-5"
        }
      } ]
    },
    "request": {
      "method": "PUT",
      "url": "tests-Device-bundle"
    }
  }, {
    "resource": {
      "resourceType": "Library",
      "id": "library-EXM108-FHIR3-7.4.000",
      "text": {
        "status": "generated",
        "div": "<div xmlns=\"http://www.w3.org/1999/xhtml\"><table class=\"grid dict\"><tr><th scope=\"row\"><b>Id: </b></th><td style=\"padding-left: 25px; padding-right: 25px;\">library-EXM108-FHIR3-7.4.000</td></tr><tr><th scope=\"row\"><b>Type: </b></th><td style=\"padding-right: 25px;\"> logic-library </td></tr><tr><th scope=\"row\"><b>Version: </b></th><td style=\"padding-left: 25px; padding-right: 25px;\">7.4.000</td></tr><tr><th scope=\"row\"><b>Status: </b></th><td style=\"padding-left: 25px; padding-right: 25px;\">active</td></tr><tr style=\"vertical-align: top;\"><th rowspan=\"4\" scope=\"row\"><b>Related: </b></th><td style=\"padding-left: 25px; padding-right: 25px;\"><p style=\"margin-bottom: 5px;\"><b>type: </b><span>depends-on</span></p><p style=\"margin-bottom: 5px;\"><b>Resource: </b><br/><span><span style=\"padding-left: 25px;\"><b>reference: </b><span>Library/library-FHIRHelpers-3.0.0</span></span></span></p></td></tr><tr style=\"vertical-align: top;\"><td style=\"padding-left: 25px; padding-right: 25px;\"><p style=\"margin-bottom: 5px;\"><b>type: </b><span>depends-on</span></p><p style=\"margin-bottom: 5px;\"><b>Resource: </b><br/><span><span style=\"padding-left: 25px;\"><b>reference: </b><span>Library/library-MATGlobalCommonFunctions-FHIR3-2.0.000</span></span></span></p></td></tr><tr style=\"vertical-align: top;\"><td style=\"padding-left: 25px; padding-right: 25px;\"><p style=\"margin-bottom: 5px;\"><b>type: </b><span>depends-on</span></p><p style=\"margin-bottom: 5px;\"><b>Resource: </b><br/><span><span style=\"padding-left: 25px;\"><b>reference: </b><span>Library/library-VTEICU-FHIR3-2.4.000</span></span></span></p></td></tr><tr style=\"vertical-align: top;\"><td style=\"padding-left: 25px; padding-right: 25px;\"><p style=\"margin-bottom: 5px;\"><b>type: </b><span>depends-on</span></p><p style=\"margin-bottom: 5px;\"><b>Resource: </b><br/><span><span style=\"padding-left: 25px;\"><b>reference: </b><span>Library/library-SupplementalDataElements-FHIR3-1.0.0</span></span></span></p></td></tr><tr style=\"vertical-align: top;\"><th rowspan=\"45\" scope=\"row\"><b>Data Requirements: </b></th><td style=\"padding-left: 25px; padding-right: 25px;\"><div><p style=\"margin-bottom: 5px;\"><b>type: </b><span>Patient</span></p></div></td></tr><tr style=\"vertical-align: top;\"><td style=\"padding-left: 25px; padding-right: 25px;\"><div><p style=\"margin-bottom: 5px;\"><b>type: </b><span>Condition</span></p><p style=\"margin-bottom: 5px;\"><b>code filter:</b><br/><span style=\"padding-left: 25px;\"><b>path: </b><span>code</span></span><br/><span style=\"padding-left: 25px;\"><b>valueset: </b><span>http://cts.nlm.nih.gov/fhir/ValueSet/2.16.840.1.113883.3.117.1.7.1.279</span></span></p></div></td></tr><tr style=\"vertical-align: top;\"><td style=\"padding-left: 25px; padding-right: 25px;\"><div><p style=\"margin-bottom: 5px;\"><b>type: </b><span>Condition</span></p><p style=\"margin-bottom: 5px;\"><b>code filter:</b><br/><span style=\"padding-left: 25px;\"><b>path: </b><span>code</span></span><br/><span style=\"padding-left: 25px;\"><b>valueset: </b><span>http://cts.nlm.nih.gov/fhir/ValueSet/2.16.840.1.113883.3.117.1.7.1.264</span></span></p></div></td></tr><tr style=\"vertical-align: top;\"><td style=\"padding-left: 25px; padding-right: 25px;\"><div><p style=\"margin-bottom: 5px;\"><b>type: </b><span>Encounter</span></p><p style=\"margin-bottom: 5px;\"><b>code filter:</b><br/><span style=\"padding-left: 25px;\"><b>path: </b><span>type</span></span><br/><span style=\"padding-left: 25px;\"><b>valueset: </b><span>http://cts.nlm.nih.gov/fhir/ValueSet/2.16.840.1.113883.3.117.1.7.1.292</span></span></p></div></td></tr><tr style=\"vertical-align: top;\"><td style=\"padding-left: 25px; padding-right: 25px;\"><div><p style=\"margin-bottom: 5px;\"><b>type: </b><span>DeviceUseStatement</span></p></div></td></tr><tr style=\"vertical-align: top;\"><td style=\"padding-left: 25px; padding-right: 25px;\"><div><p style=\"margin-bottom: 5px;\"><b>type: </b><span>Device</span></p></div></td></tr><tr style=\"vertical-align: top;\"><td style=\"padding-left: 25px; padding-right: 25px;\"><div><p style=\"margin-bottom: 5px;\"><b>type: </b><span>DeviceRequest</span></p><p style=\"margin-bottom: 5px;\"><b>code filter:</b><br/><span style=\"padding-left: 25px;\"><b>path: </b><span>code</span></span><br/><span style=\"padding-left: 25px;\"><b>valueset: </b><span>http://cts.nlm.nih.gov/fhir/ValueSet/2.16.840.1.113883.3.117.1.7.1.230</span></span></p></div></td></tr><tr style=\"vertical-align: top;\"><td style=\"padding-left: 25px; padding-right: 25px;\"><div><p style=\"margin-bottom: 5px;\"><b>type: </b><span>DeviceRequest</span></p><p style=\"margin-bottom: 5px;\"><b>code filter:</b><br/><span style=\"padding-left: 25px;\"><b>path: </b><span>code</span></span><br/><span style=\"padding-left: 25px;\"><b>valueset: </b><span>http://cts.nlm.nih.gov/fhir/ValueSet/2.16.840.1.113883.3.117.1.7.1.214</span></span></p></div></td></tr><tr style=\"vertical-align: top;\"><td style=\"padding-left: 25px; padding-right: 25px;\"><div><p style=\"margin-bottom: 5px;\"><b>type: </b><span>DeviceRequest</span></p><p style=\"margin-bottom: 5px;\"><b>code filter:</b><br/><span style=\"padding-left: 25px;\"><b>path: </b><span>code</span></span><br/><span style=\"padding-left: 25px;\"><b>valueset: </b><span>http://cts.nlm.nih.gov/fhir/ValueSet/2.16.840.1.113883.3.117.1.7.1.256</span></span></p></div></td></tr><tr style=\"vertical-align: top;\"><td style=\"padding-left: 25px; padding-right: 25px;\"><div><p style=\"margin-bottom: 5px;\"><b>type: </b><span>MedicationAdministration</span></p><p style=\"margin-bottom: 5px;\"><b>code filter:</b><br/><span style=\"padding-left: 25px;\"><b>path: </b><span>medication</span></span><br/><span style=\"padding-left: 25px;\"><b>valueset: </b><span>http://cts.nlm.nih.gov/fhir/ValueSet/2.16.840.1.113762.1.4.1045.39</span></span></p></div></td></tr><tr style=\"vertical-align: top;\"><td style=\"padding-left: 25px; padding-right: 25px;\"><div><p style=\"margin-bottom: 5px;\"><b>type: </b><span>MedicationAdministration</span></p><p style=\"margin-bottom: 5px;\"><b>code filter:</b><br/><span style=\"padding-left: 25px;\"><b>path: </b><span>medication</span></span><br/><span style=\"padding-left: 25px;\"><b>valueset: </b><span>http://cts.nlm.nih.gov/fhir/ValueSet/2.16.840.1.113883.3.117.1.7.1.219</span></span></p></div></td></tr><tr style=\"vertical-align: top;\"><td style=\"padding-left: 25px; padding-right: 25px;\"><div><p style=\"margin-bottom: 5px;\"><b>type: </b><span>MedicationAdministration</span></p><p style=\"margin-bottom: 5px;\"><b>code filter:</b><br/><span style=\"padding-left: 25px;\"><b>path: </b><span>medication</span></span><br/><span style=\"padding-left: 25px;\"><b>valueset: </b><span>http://cts.nlm.nih.gov/fhir/ValueSet/2.16.840.1.113883.3.117.1.7.1.211</span></span></p></div></td></tr><tr style=\"vertical-align: top;\"><td style=\"padding-left: 25px; padding-right: 25px;\"><div><p style=\"margin-bottom: 5px;\"><b>type: </b><span>MedicationAdministration</span></p><p style=\"margin-bottom: 5px;\"><b>code filter:</b><br/><span style=\"padding-left: 25px;\"><b>path: </b><span>medication</span></span><br/><span style=\"padding-left: 25px;\"><b>valueset: </b><span>http://cts.nlm.nih.gov/fhir/ValueSet/2.16.840.1.113883.3.117.1.7.1.232</span></span></p></div></td></tr><tr style=\"vertical-align: top;\"><td style=\"padding-left: 25px; padding-right: 25px;\"><div><p style=\"margin-bottom: 5px;\"><b>type: </b><span>MedicationRequest</span></p><p style=\"margin-bottom: 5px;\"><b>code filter:</b><br/><span style=\"padding-left: 25px;\"><b>path: </b><span>medication</span></span><br/><span style=\"padding-left: 25px;\"><b>valueset: </b><span>http://cts.nlm.nih.gov/fhir/ValueSet/2.16.840.1.113762.1.4.1045.39</span></span></p></div></td></tr><tr style=\"vertical-align: top;\"><td style=\"padding-left: 25px; padding-right: 25px;\"><div><p style=\"margin-bottom: 5px;\"><b>type: </b><span>MedicationRequest</span></p><p style=\"margin-bottom: 5px;\"><b>code filter:</b><br/><span style=\"padding-left: 25px;\"><b>path: </b><span>medication</span></span><br/><span style=\"padding-left: 25px;\"><b>valueset: </b><span>http://cts.nlm.nih.gov/fhir/ValueSet/2.16.840.1.113883.3.117.1.7.1.219</span></span></p></div></td></tr><tr style=\"vertical-align: top;\"><td style=\"padding-left: 25px; padding-right: 25px;\"><div><p style=\"margin-bottom: 5px;\"><b>type: </b><span>MedicationRequest</span></p><p style=\"margin-bottom: 5px;\"><b>code filter:</b><br/><span style=\"padding-left: 25px;\"><b>path: </b><span>medication</span></span><br/><span style=\"padding-left: 25px;\"><b>valueset: </b><span>http://cts.nlm.nih.gov/fhir/ValueSet/2.16.840.1.113883.3.117.1.7.1.211</span></span></p></div></td></tr><tr style=\"vertical-align: top;\"><td style=\"padding-left: 25px; padding-right: 25px;\"><div><p style=\"margin-bottom: 5px;\"><b>type: </b><span>MedicationRequest</span></p><p style=\"margin-bottom: 5px;\"><b>code filter:</b><br/><span style=\"padding-left: 25px;\"><b>path: </b><span>medication</span></span><br/><span style=\"padding-left: 25px;\"><b>valueset: </b><span>http://cts.nlm.nih.gov/fhir/ValueSet/2.16.840.1.113883.3.117.1.7.1.232</span></span></p></div></td></tr><tr style=\"vertical-align: top;\"><td style=\"padding-left: 25px; padding-right: 25px;\"><div><p style=\"margin-bottom: 5px;\"><b>type: </b><span>Procedure</span></p><p style=\"margin-bottom: 5px;\"><b>code filter:</b><br/><span style=\"padding-left: 25px;\"><b>path: </b><span>code</span></span><br/><span style=\"padding-left: 25px;\"><b>valueset: </b><span>http://cts.nlm.nih.gov/fhir/ValueSet/2.16.840.1.113883.3.666.5.1743</span></span></p></div></td></tr><tr style=\"vertical-align: top;\"><td style=\"padding-left: 25px; padding-right: 25px;\"><div><p style=\"margin-bottom: 5px;\"><b>type: </b><span>Procedure</span></p><p style=\"margin-bottom: 5px;\"><b>code filter:</b><br/><span style=\"padding-left: 25px;\"><b>path: </b><span>code</span></span><br/><span style=\"padding-left: 25px;\"><b>valueset: </b><span>http://cts.nlm.nih.gov/fhir/ValueSet/2.16.840.1.113883.3.666.5.1743</span></span></p></div></td></tr><tr style=\"vertical-align: top;\"><td style=\"padding-left: 25px; padding-right: 25px;\"><div><p style=\"margin-bottom: 5px;\"><b>type: </b><span>Procedure</span></p><p style=\"margin-bottom: 5px;\"><b>code filter:</b><br/><span style=\"padding-left: 25px;\"><b>path: </b><span>code</span></span><br/><span style=\"padding-left: 25px;\"><b>valueset: </b><span>http://cts.nlm.nih.gov/fhir/ValueSet/2.16.840.1.113883.3.117.1.7.1.257</span></span></p></div></td></tr><tr style=\"vertical-align: top;\"><td style=\"padding-left: 25px; padding-right: 25px;\"><div><p style=\"margin-bottom: 5px;\"><b>type: </b><span>Procedure</span></p><p style=\"margin-bottom: 5px;\"><b>code filter:</b><br/><span style=\"padding-left: 25px;\"><b>path: </b><span>code</span></span><br/><span style=\"padding-left: 25px;\"><b>valueset: </b><span>http://cts.nlm.nih.gov/fhir/ValueSet/2.16.840.1.113883.3.117.1.7.1.258</span></span></p></div></td></tr><tr style=\"vertical-align: top;\"><td style=\"padding-left: 25px; padding-right: 25px;\"><div><p style=\"margin-bottom: 5px;\"><b>type: </b><span>Procedure</span></p><p style=\"margin-bottom: 5px;\"><b>code filter:</b><br/><span style=\"padding-left: 25px;\"><b>path: </b><span>code</span></span><br/><span style=\"padding-left: 25px;\"><b>valueset: </b><span>http://cts.nlm.nih.gov/fhir/ValueSet/2.16.840.1.113883.3.117.1.7.1.259</span></span></p></div></td></tr><tr style=\"vertical-align: top;\"><td style=\"padding-left: 25px; padding-right: 25px;\"><div><p style=\"margin-bottom: 5px;\"><b>type: </b><span>Procedure</span></p><p style=\"margin-bottom: 5px;\"><b>code filter:</b><br/><span style=\"padding-left: 25px;\"><b>path: </b><span>code</span></span><br/><span style=\"padding-left: 25px;\"><b>valueset: </b><span>http://cts.nlm.nih.gov/fhir/ValueSet/2.16.840.1.113883.3.117.1.7.1.260</span></span></p></div></td></tr><tr style=\"vertical-align: top;\"><td style=\"padding-left: 25px; padding-right: 25px;\"><div><p style=\"margin-bottom: 5px;\"><b>type: </b><span>Procedure</span></p><p style=\"margin-bottom: 5px;\"><b>code filter:</b><br/><span style=\"padding-left: 25px;\"><b>path: </b><span>code</span></span><br/><span style=\"padding-left: 25px;\"><b>valueset: </b><span>http://cts.nlm.nih.gov/fhir/ValueSet/2.16.840.1.113883.3.117.1.7.1.261</span></span></p></div></td></tr><tr style=\"vertical-align: top;\"><td style=\"padding-left: 25px; padding-right: 25px;\"><div><p style=\"margin-bottom: 5px;\"><b>type: </b><span>Procedure</span></p><p style=\"margin-bottom: 5px;\"><b>code filter:</b><br/><span style=\"padding-left: 25px;\"><b>path: </b><span>code</span></span><br/><span style=\"padding-left: 25px;\"><b>valueset: </b><span>http://cts.nlm.nih.gov/fhir/ValueSet/2.16.840.1.113883.3.117.1.7.1.272</span></span></p></div></td></tr><tr style=\"vertical-align: top;\"><td style=\"padding-left: 25px; padding-right: 25px;\"><div><p style=\"margin-bottom: 5px;\"><b>type: </b><span>ProcedureRequest</span></p><p style=\"margin-bottom: 5px;\"><b>code filter:</b><br/><span style=\"padding-left: 25px;\"><b>path: </b><span>code</span></span><br/><span style=\"padding-left: 25px;\"><b>valueset: </b><span>http://cts.nlm.nih.gov/fhir/ValueSet/1.3.6.1.4.1.33895.1.3.0.45</span></span></p></div></td></tr><tr style=\"vertical-align: top;\"><td style=\"padding-left: 25px; padding-right: 25px;\"><div><p style=\"margin-bottom: 5px;\"><b>type: </b><span>Procedure</span></p><p style=\"margin-bottom: 5px;\"><b>code filter:</b><br/><span style=\"padding-left: 25px;\"><b>path: </b><span>code</span></span><br/><span style=\"padding-left: 25px;\"><b>valueset: </b><span>http://cts.nlm.nih.gov/fhir/ValueSet/1.3.6.1.4.1.33895.1.3.0.45</span></span></p></div></td></tr><tr style=\"vertical-align: top;\"><td style=\"padding-left: 25px; padding-right: 25px;\"><div><p style=\"margin-bottom: 5px;\"><b>type: </b><span>Procedure</span></p><p style=\"margin-bottom: 5px;\"><b>code filter:</b><br/><span style=\"padding-left: 25px;\"><b>path: </b><span>code</span></span><br/><span style=\"padding-left: 25px;\"><b>valueset: </b><span>http://cts.nlm.nih.gov/fhir/ValueSet/2.16.840.1.113883.3.666.5.1743</span></span></p></div></td></tr><tr style=\"vertical-align: top;\"><td style=\"padding-left: 25px; padding-right: 25px;\"><div><p style=\"margin-bottom: 5px;\"><b>type: </b><span>MedicationAdministration</span></p><p style=\"margin-bottom: 5px;\"><b>code filter:</b><br/><span style=\"padding-left: 25px;\"><b>path: </b><span>medication</span></span><br/><span style=\"padding-left: 25px;\"><b>valueset: </b><span>http://cts.nlm.nih.gov/fhir/ValueSet/2.16.840.1.113762.1.4.1045.39</span></span></p></div></td></tr><tr style=\"vertical-align: top;\"><td style=\"padding-left: 25px; padding-right: 25px;\"><div><p style=\"margin-bottom: 5px;\"><b>type: </b><span>MedicationAdministration</span></p><p style=\"margin-bottom: 5px;\"><b>code filter:</b><br/><span style=\"padding-left: 25px;\"><b>path: </b><span>medication</span></span><br/><span style=\"padding-left: 25px;\"><b>valueset: </b><span>http://cts.nlm.nih.gov/fhir/ValueSet/2.16.840.1.113883.3.117.1.7.1.219</span></span></p></div></td></tr><tr style=\"vertical-align: top;\"><td style=\"padding-left: 25px; padding-right: 25px;\"><div><p style=\"margin-bottom: 5px;\"><b>type: </b><span>MedicationAdministration</span></p><p style=\"margin-bottom: 5px;\"><b>code filter:</b><br/><span style=\"padding-left: 25px;\"><b>path: </b><span>medication</span></span><br/><span style=\"padding-left: 25px;\"><b>valueset: </b><span>http://cts.nlm.nih.gov/fhir/ValueSet/2.16.840.1.113883.3.117.1.7.1.211</span></span></p></div></td></tr><tr style=\"vertical-align: top;\"><td style=\"padding-left: 25px; padding-right: 25px;\"><div><p style=\"margin-bottom: 5px;\"><b>type: </b><span>MedicationAdministration</span></p><p style=\"margin-bottom: 5px;\"><b>code filter:</b><br/><span style=\"padding-left: 25px;\"><b>path: </b><span>medication</span></span><br/><span style=\"padding-left: 25px;\"><b>valueset: </b><span>http://cts.nlm.nih.gov/fhir/ValueSet/2.16.840.1.113883.3.117.1.7.1.232</span></span></p></div></td></tr><tr style=\"vertical-align: top;\"><td style=\"padding-left: 25px; padding-right: 25px;\"><div><p style=\"margin-bottom: 5px;\"><b>type: </b><span>DeviceUseStatement</span></p></div></td></tr><tr style=\"vertical-align: top;\"><td style=\"padding-left: 25px; padding-right: 25px;\"><div><p style=\"margin-bottom: 5px;\"><b>type: </b><span>Device</span></p></div></td></tr><tr style=\"vertical-align: top;\"><td style=\"padding-left: 25px; padding-right: 25px;\"><div><p style=\"margin-bottom: 5px;\"><b>type: </b><span>Procedure</span></p><p style=\"margin-bottom: 5px;\"><b>code filter:</b><br/><span style=\"padding-left: 25px;\"><b>path: </b><span>code</span></span><br/><span style=\"padding-left: 25px;\"><b>valueset: </b><span>http://cts.nlm.nih.gov/fhir/ValueSet/2.16.840.1.113883.3.666.5.1743</span></span></p></div></td></tr><tr style=\"vertical-align: top;\"><td style=\"padding-left: 25px; padding-right: 25px;\"><div><p style=\"margin-bottom: 5px;\"><b>type: </b><span>MedicationAdministration</span></p><p style=\"margin-bottom: 5px;\"><b>code filter:</b><br/><span style=\"padding-left: 25px;\"><b>path: </b><span>medication</span></span><br/><span style=\"padding-left: 25px;\"><b>valueset: </b><span>http://cts.nlm.nih.gov/fhir/ValueSet/2.16.840.1.113883.3.117.1.7.1.134</span></span></p></div></td></tr><tr style=\"vertical-align: top;\"><td style=\"padding-left: 25px; padding-right: 25px;\"><div><p style=\"margin-bottom: 5px;\"><b>type: </b><span>Procedure</span></p><p style=\"margin-bottom: 5px;\"><b>code filter:</b><br/><span style=\"padding-left: 25px;\"><b>path: </b><span>code</span></span><br/><span style=\"padding-left: 25px;\"><b>valueset: </b><span>http://cts.nlm.nih.gov/fhir/ValueSet/2.16.840.1.113883.3.666.5.1743</span></span></p></div></td></tr><tr style=\"vertical-align: top;\"><td style=\"padding-left: 25px; padding-right: 25px;\"><div><p style=\"margin-bottom: 5px;\"><b>type: </b><span>MedicationAdministration</span></p><p style=\"margin-bottom: 5px;\"><b>code filter:</b><br/><span style=\"padding-left: 25px;\"><b>path: </b><span>medication</span></span><br/><span style=\"padding-left: 25px;\"><b>valueset: </b><span>http://cts.nlm.nih.gov/fhir/ValueSet/2.16.840.1.113883.3.117.1.7.1.134</span></span></p></div></td></tr><tr style=\"vertical-align: top;\"><td style=\"padding-left: 25px; padding-right: 25px;\"><div><p style=\"margin-bottom: 5px;\"><b>type: </b><span>Condition</span></p><p style=\"margin-bottom: 5px;\"><b>code filter:</b><br/><span style=\"padding-left: 25px;\"><b>path: </b><span>code</span></span><br/><span style=\"padding-left: 25px;\"><b>valueset: </b><span>http://cts.nlm.nih.gov/fhir/ValueSet/2.16.840.1.113883.3.117.1.7.1.202</span></span></p></div></td></tr><tr style=\"vertical-align: top;\"><td style=\"padding-left: 25px; padding-right: 25px;\"><div><p style=\"margin-bottom: 5px;\"><b>type: </b><span>Condition</span></p><p style=\"margin-bottom: 5px;\"><b>code filter:</b><br/><span style=\"padding-left: 25px;\"><b>path: </b><span>code</span></span><br/><span style=\"padding-left: 25px;\"><b>valueset: </b><span>http://cts.nlm.nih.gov/fhir/ValueSet/2.16.840.1.113883.3.117.1.7.1.279</span></span></p></div></td></tr><tr style=\"vertical-align: top;\"><td style=\"padding-left: 25px; padding-right: 25px;\"><div><p style=\"margin-bottom: 5px;\"><b>type: </b><span>Procedure</span></p><p style=\"margin-bottom: 5px;\"><b>code filter:</b><br/><span style=\"padding-left: 25px;\"><b>path: </b><span>code</span></span><br/><span style=\"padding-left: 25px;\"><b>valueset: </b><span>http://cts.nlm.nih.gov/fhir/ValueSet/2.16.840.1.113883.3.117.1.7.1.259</span></span></p></div></td></tr><tr style=\"vertical-align: top;\"><td style=\"padding-left: 25px; padding-right: 25px;\"><div><p style=\"margin-bottom: 5px;\"><b>type: </b><span>Procedure</span></p><p style=\"margin-bottom: 5px;\"><b>code filter:</b><br/><span style=\"padding-left: 25px;\"><b>path: </b><span>code</span></span><br/><span style=\"padding-left: 25px;\"><b>valueset: </b><span>http://cts.nlm.nih.gov/fhir/ValueSet/2.16.840.1.113883.3.117.1.7.1.261</span></span></p></div></td></tr><tr style=\"vertical-align: top;\"><td style=\"padding-left: 25px; padding-right: 25px;\"><div><p style=\"margin-bottom: 5px;\"><b>type: </b><span>Observation</span></p><p style=\"margin-bottom: 5px;\"><b>code filter:</b><br/><span style=\"padding-left: 25px;\"><b>path: </b><span>code</span></span></p></div></td></tr><tr style=\"vertical-align: top;\"><td style=\"padding-left: 25px; padding-right: 25px;\"><div><p style=\"margin-bottom: 5px;\"><b>type: </b><span>Procedure</span></p><p style=\"margin-bottom: 5px;\"><b>code filter:</b><br/><span style=\"padding-left: 25px;\"><b>path: </b><span>code</span></span><br/><span style=\"padding-left: 25px;\"><b>valueset: </b><span>http://cts.nlm.nih.gov/fhir/ValueSet/2.16.840.1.113883.3.666.5.1743</span></span></p></div></td></tr><tr style=\"vertical-align: top;\"><td style=\"padding-left: 25px; padding-right: 25px;\"><div><p style=\"margin-bottom: 5px;\"><b>type: </b><span>Procedure</span></p><p style=\"margin-bottom: 5px;\"><b>code filter:</b><br/><span style=\"padding-left: 25px;\"><b>path: </b><span>code</span></span><br/><span style=\"padding-left: 25px;\"><b>valueset: </b><span>http://cts.nlm.nih.gov/fhir/ValueSet/2.16.840.1.113883.3.666.5.1743</span></span></p></div></td></tr><tr style=\"vertical-align: top;\"><th scope=\"row\"><b>Content: </b></th><td style=\"padding-left: 25px; padding-right: 25px;\"><b>type: </b><span>text/cql</span></td></tr><tr><td colspan=\"2\" style=\"padding-left: 25px; padding-right: 25px;\"><pre><code class=\"language-cql\">library EXM108_FHIR3 version '7.4.000'\n\n/*\nBased on CMS108v7 - Venous Thromboembolism Prophylaxis\n*/\n\n/*\nThis example is a work in progress and should not be considered a final specification\nor recommendation for guidance. This example will help guide and direct the process\nof finding conventions and usage patterns that meet the needs of the various stakeholders\nin the measure development community.\n*/\n\n/*\nData Types Used:\n\nEncounter\nDeviceUseStatement\nDeviceRequest\nMedicationAdministration\nMedicationRequest\nProcedure - ordinality extension\nProcedureRequest\nCondition\n*/\n\n/*\nDevelopment Notes:\n\n    Need to define “doNotPerfom” QICore extension to support “NotDone is true” expression. Suggest to the base Resource for the following profiles –\n\n        DeviceUseStatement\n        DeviceRequest\n        MedicationRequest\n\n        Add doNotPerform to DeviceUseRequest and notDone to DeviceUseStatement:\n        [#20601](https://gforge.hl7.org/gf/project/fhir/tracker/?action=TrackerItemEdit&amp;tracker_item_id=20601)\n        Promote profiles to QI-Core:\n        [#20610](https://gforge.hl7.org/gf/project/fhir/tracker/?action=TrackerItemEdit&amp;tracker_item_id=20610)\n\n    Need to define an “ordinality” extension for Procedure profile to support “Procedure.ordinality ~ &quot;Principal&quot; expression.\n\n      [#20527](https://gforge.hl7.org/gf/project/fhir/tracker/?action=TrackerItemEdit&amp;tracker_item_id=20527)\n\n    Need to confirm the following profiles and ensure Period is a default type -\n\n        MedicationAdministration.effective\n        Procedure.performed\n\n        Defined as DEQM profiles currently, promote to QI-Core\n        [#20611](https://gforge.hl7.org/gf/project/fhir/tracker/?action=TrackerItemEdit&amp;tracker_item_id=20611)\n\n    Suggest defining “recordedOn“ to support the timings for “MedicationAdministration.notGiven” and “Procedure.notDone”. see the highlighted fields below.\n\n      [#20602](https://gforge.hl7.org/gf/project/fhir/tracker/?action=TrackerItemEdit&amp;tracker_item_id=20602)\n\n|Profile                   |Timing used for Done |Timing used for doNotPerform |TJC comments          |\n|---|---|---|---|\n|DeviceUseStatement        |whenUsed             |recordedOn                   |   |\n|DeviceRequest             |authoredOn           |authoredOn                   |   |\n|MedicationAdministration  |effective            |effective                    | Suggest adding recordedOn for notGiven timing |\n|MedicationRequest         |authoredOn           |authoredOn                   |   |\n|Procedure                 |performed            |performed                    | Suggest adding recordedOn for notDone timing |\n|ProcedureRequest          |authoredOn           |authoredOn                   |   |\n*/\n\nusing FHIR version '3.0.0'\n\ninclude FHIRHelpers version '3.0.0' called FHIRHelpers\ninclude MATGlobalCommonFunctions_FHIR3 version '2.0.000' called Global\ninclude VTEICU_FHIR3 version '2.4.000' called VTEICU\ninclude SupplementalDataElements_FHIR3 version '1.0.0' called SDE\n\ncodesystem &quot;SNOMEDCT&quot;: 'http://snomed.info/sct/731000124108'\ncodesystem &quot;LOINC&quot;: 'http://loinc.org'\ncodesystem &quot;RequestIntent&quot;: 'http://hl7.org/fhir/request-intent'\n\nvalueset &quot;ONC Administrative Sex&quot;: 'http://cts.nlm.nih.gov/fhir/ValueSet/2.16.840.1.113762.1.4.1'\nvalueset &quot;Race&quot;: 'http://cts.nlm.nih.gov/fhir/ValueSet/2.16.840.1.114222.4.11.836'\nvalueset &quot;Ethnicity&quot;: 'http://cts.nlm.nih.gov/fhir/ValueSet/2.16.840.1.114222.4.11.837'\nvalueset &quot;Payer&quot;: 'http://cts.nlm.nih.gov/fhir/ValueSet/2.16.840.1.114222.4.11.3591'\nvalueset &quot;Atrial Fibrillation/Flutter&quot;: 'http://cts.nlm.nih.gov/fhir/ValueSet/2.16.840.1.113883.3.117.1.7.1.202'\nvalueset &quot;Comfort Measures&quot;: 'http://cts.nlm.nih.gov/fhir/ValueSet/1.3.6.1.4.1.33895.1.3.0.45'\nvalueset &quot;Direct Thrombin Inhibitor&quot;: 'http://cts.nlm.nih.gov/fhir/ValueSet/2.16.840.1.113883.3.117.1.7.1.205'\nvalueset &quot;Emergency Department Visit&quot;: 'http://cts.nlm.nih.gov/fhir/ValueSet/2.16.840.1.113883.3.117.1.7.1.292'\nvalueset &quot;General or Neuraxial Anesthesia&quot;: 'http://cts.nlm.nih.gov/fhir/ValueSet/2.16.840.1.113883.3.666.5.1743'\nvalueset &quot;General Surgery&quot;: 'http://cts.nlm.nih.gov/fhir/ValueSet/2.16.840.1.113883.3.117.1.7.1.255'\nvalueset &quot;Glycoprotein IIb/IIIa Inhibitors&quot;: 'http://cts.nlm.nih.gov/fhir/ValueSet/2.16.840.1.113762.1.4.1045.41'\nvalueset &quot;Graduated compression stockings (GCS)&quot;: 'http://cts.nlm.nih.gov/fhir/ValueSet/2.16.840.1.113883.3.117.1.7.1.256'\nvalueset &quot;Gynecological Surgery&quot;: 'http://cts.nlm.nih.gov/fhir/ValueSet/2.16.840.1.113883.3.117.1.7.1.257'\nvalueset &quot;Hemorrhagic Stroke&quot;: 'http://cts.nlm.nih.gov/fhir/ValueSet/2.16.840.1.113883.3.117.1.7.1.212'\nvalueset &quot;Hip Fracture Surgery&quot;: 'http://cts.nlm.nih.gov/fhir/ValueSet/2.16.840.1.113883.3.117.1.7.1.258'\nvalueset &quot;Hip Replacement Surgery&quot;: 'http://cts.nlm.nih.gov/fhir/ValueSet/2.16.840.1.113883.3.117.1.7.1.259'\nvalueset &quot;Injectable Factor Xa Inhibitor for VTE Prophylaxis&quot;: 'http://cts.nlm.nih.gov/fhir/ValueSet/2.16.840.1.113883.3.117.1.7.1.211'\nvalueset &quot;INR&quot;: 'http://cts.nlm.nih.gov/fhir/ValueSet/2.16.840.1.113883.3.117.1.7.1.213'\nvalueset &quot;Intermittent pneumatic compression devices (IPC)&quot;: 'http://cts.nlm.nih.gov/fhir/ValueSet/2.16.840.1.113883.3.117.1.7.1.214'\nvalueset &quot;Intracranial Neurosurgery&quot;: 'http://cts.nlm.nih.gov/fhir/ValueSet/2.16.840.1.113883.3.117.1.7.1.260'\nvalueset &quot;Intravenous route&quot;: 'http://cts.nlm.nih.gov/fhir/ValueSet/2.16.840.1.113883.3.117.1.7.1.222'\nvalueset &quot;Ischemic Stroke&quot;: 'http://cts.nlm.nih.gov/fhir/ValueSet/2.16.840.1.113883.3.117.1.7.1.247'\nvalueset &quot;Knee Replacement Surgery&quot;: 'http://cts.nlm.nih.gov/fhir/ValueSet/2.16.840.1.113883.3.117.1.7.1.261'\nvalueset &quot;Low Dose Unfractionated Heparin for VTE Prophylaxis&quot;: 'http://cts.nlm.nih.gov/fhir/ValueSet/2.16.840.1.113762.1.4.1045.39'\nvalueset &quot;Low Molecular Weight Heparin for VTE Prophylaxis&quot;: 'http://cts.nlm.nih.gov/fhir/ValueSet/2.16.840.1.113883.3.117.1.7.1.219'\nvalueset &quot;Low Risk&quot;: 'http://cts.nlm.nih.gov/fhir/ValueSet/2.16.840.1.113883.3.117.1.7.1.400'\nvalueset &quot;Medical Reason&quot;: 'http://cts.nlm.nih.gov/fhir/ValueSet/2.16.840.1.113883.3.117.1.7.1.473'\nvalueset &quot;Mental Health Diagnoses&quot;: 'http://cts.nlm.nih.gov/fhir/ValueSet/2.16.840.1.113883.3.464.1003.105.12.1004'\nvalueset &quot;Obstetrics&quot;: 'http://cts.nlm.nih.gov/fhir/ValueSet/2.16.840.1.113883.3.117.1.7.1.263'\nvalueset &quot;Obstetrics VTE&quot;: 'http://cts.nlm.nih.gov/fhir/ValueSet/2.16.840.1.113883.3.117.1.7.1.264'\nvalueset &quot;Oral Factor Xa Inhibitor for VTE Prophylaxis or VTE Treatment&quot;: 'http://cts.nlm.nih.gov/fhir/ValueSet/2.16.840.1.113883.3.117.1.7.1.134'\nvalueset &quot;Patient Refusal&quot;: 'http://cts.nlm.nih.gov/fhir/ValueSet/2.16.840.1.113883.3.117.1.7.1.93'\n//valueset &quot;Principal&quot;: 'http://cts.nlm.nih.gov/fhir/ValueSet/2.16.840.1.113883.3.117.1.7.1.14' // Changed to use a code\nvalueset &quot;Subcutaneous route&quot;: 'http://cts.nlm.nih.gov/fhir/ValueSet/2.16.840.1.113883.3.117.1.7.1.223'\nvalueset &quot;Unfractionated Heparin&quot;: 'http://cts.nlm.nih.gov/fhir/ValueSet/2.16.840.1.113883.3.117.1.7.1.218'\nvalueset &quot;Urological Surgery&quot;: 'http://cts.nlm.nih.gov/fhir/ValueSet/2.16.840.1.113883.3.117.1.7.1.272'\nvalueset &quot;Venous foot pumps (VFP)&quot;: 'http://cts.nlm.nih.gov/fhir/ValueSet/2.16.840.1.113883.3.117.1.7.1.230'\nvalueset &quot;Venous Thromboembolism&quot;: 'http://cts.nlm.nih.gov/fhir/ValueSet/2.16.840.1.113883.3.117.1.7.1.279'\nvalueset &quot;Warfarin&quot;: 'http://cts.nlm.nih.gov/fhir/ValueSet/2.16.840.1.113883.3.117.1.7.1.232'\nvalueset &quot;Intensive Care Unit&quot;: 'http://cts.nlm.nih.gov/fhir/ValueSet/2.16.840.1.113762.1.4.1110.23'\n\ncode &quot;Risk for venous thromboembolism&quot;: '72136-5' from &quot;LOINC&quot; display 'Risk for venous thromboembolism'\ncode &quot;Principal&quot;: '63161005' from &quot;SNOMEDCT&quot; display 'Principal (qualifier value)'\ncode &quot;Order&quot;: 'order' from &quot;RequestIntent&quot; display 'Order'\n\nparameter &quot;Measurement Period&quot; Interval&lt;DateTime&gt;\n    default Interval[@2019-01-01T00:00:00.0, @2020-01-01T00:00:00.0)\n\ncontext Patient\n\ndefine &quot;SDE Ethnicity&quot;:\n  SDE.&quot;SDE Ethnicity&quot;\n\ndefine &quot;SDE Payer&quot;:\n\tSDE.&quot;SDE Payer&quot;\n\ndefine &quot;SDE Race&quot;:\n  SDE.&quot;SDE Race&quot;\n\ndefine &quot;SDE Sex&quot;:\n\tSDE.&quot;SDE Sex&quot;\n\ndefine &quot;Denominator&quot;:\n\t&quot;Initial Population&quot;\n\ndefine &quot;ED Visit&quot;:\n\t[&quot;Encounter&quot;: type in &quot;Emergency Department Visit&quot;] EDVisit\n    where EDVisit.status = 'finished'\n\ndefine &quot;Initial Population&quot;:\n\t&quot;Encounter With Age Range and Without VTE Diagnosis or Obstetrical Conditions&quot;\n\ndefine &quot;No VTE Prophylaxis Device Applied or Ordered&quot;:\n  // NOTE: Should be using device.code, but that requires CQL 1.4\n  (\n     (\n       (\n           [&quot;DeviceUseStatement&quot;] DeviceUseStatement\n               where DeviceUseStatement.status = 'completed'\n       ) ValidDeviceUseStatement\n           with [Device] Device\n               such that Global.GetId(ValidDeviceUseStatement.device.reference) = Device.id\n                   and (\n                       Device.type in &quot;Venous foot pumps (VFP)&quot;\n                           or Device.type in &quot;Intermittent pneumatic compression devices (IPC)&quot;\n                           or Device.type in &quot;Graduated compression stockings (GCS)&quot;\n                   )\n     ) D\n     //JR: updated to use the Global get extension because the argument is DomainResource\n     where Global.GetExtension(D, 'doNotPerform').value is true\n  )\n  union ((\n    [&quot;DeviceRequest&quot;: code in &quot;Venous foot pumps (VFP)&quot;]\n      union [&quot;DeviceRequest&quot;: code in &quot;Intermittent pneumatic compression devices (IPC)&quot;]\n      union [&quot;DeviceRequest&quot;: code in &quot;Graduated compression stockings (GCS)&quot;]\n  ) D\n    where D.intent ~ ToConcept(&quot;Order&quot;)\n    //JR: updated to use the Global get extension because the argument is DomainResource\n\t and Global.GetExtension(D, 'doNotPerform').value is true\n    //where D.doNotPerform is true // Needs a QI-Core extension to support\n  )\ndefine function GetExtension(Extensions List&lt;Extension&gt;, URL String):\n  singleton from (Extensions E where E.url = URL return E)\n\n//Done\ndefine &quot;No VTE Prophylaxis Device Due to Medical Reason During ED Visit&quot;:\n\tfrom\n\t\t&quot;Encounter With Age Range and Without VTE Diagnosis or Obstetrical Conditions&quot; QualifyingEncounter,\n\t\t&quot;ED Visit&quot; EDVisit,\n\t\t&quot;No VTE Prophylaxis Device Applied or Ordered&quot; NoVTEDevice\n\t\twhere FHIRHelpers.ToInterval(EDVisit.period) ends 1 hour or less on or before start of FHIRHelpers.ToInterval(QualifyingEncounter.period)\n\t\t\tand (singleton from NoVTEDevice.reasonCode in &quot;Medical Reason&quot;)\n\t\t\tand Coalesce(NoVTEDevice.authoredOn, NoVTEDevice.recordedOn) during FHIRHelpers.ToInterval(EDVisit.period)\n\n//Done\ndefine &quot;No VTE Prophylaxis Device Due to Medical Reason on Day of or Day After Admission&quot;:\n\tfrom\n\t\t&quot;Encounter With Age Range and Without VTE Diagnosis or Obstetrical Conditions&quot; QualifyingEncounter,\n\t\t&quot;No VTE Prophylaxis Device Applied or Ordered&quot; NoVTEDevice\n\t\twhere (singleton from NoVTEDevice.reasonCode in &quot;Medical Reason&quot;)\n\t\t\tand Coalesce(NoVTEDevice.authoredOn, NoVTEDevice.recordedOn) during VTEICU.&quot;CalendarDayOfOrDayAfter&quot;(start of FHIRHelpers.ToInterval(QualifyingEncounter.period))\n\n//Done\ndefine &quot;No VTE Prophylaxis Medication Administered or Ordered&quot;:\n\t((\t[&quot;MedicationAdministration&quot;: medication in &quot;Low Dose Unfractionated Heparin for VTE Prophylaxis&quot;]\n\tunion\n\t[&quot;MedicationAdministration&quot;: medication in &quot;Low Molecular Weight Heparin for VTE Prophylaxis&quot;]\n\tunion\n\t[&quot;MedicationAdministration&quot;: medication in &quot;Injectable Factor Xa Inhibitor for VTE Prophylaxis&quot;]\n\tunion\n\t[&quot;MedicationAdministration&quot;: medication in &quot;Warfarin&quot;]\n\t) MedicationAdm\n\t\twhere MedicationAdm.notGiven is true\n\t)\n\tunion\n\t // TODO: Tracker for QI-core to add doNotPerform extension for MedicationRequest and suggest to the base Resource\n\t//JR: code is not an attribute of MedicationRequest.  Used medication instead.\n\t((\t[&quot;MedicationRequest&quot;: medication in &quot;Low Dose Unfractionated Heparin for VTE Prophylaxis&quot;]\n\tunion\n\t[&quot;MedicationRequest&quot;: medication in &quot;Low Molecular Weight Heparin for VTE Prophylaxis&quot;]\n\tunion\n\t[&quot;MedicationRequest&quot;: medication in &quot;Injectable Factor Xa Inhibitor for VTE Prophylaxis&quot;]\n\tunion\n\t[&quot;MedicationRequest&quot;: medication in &quot;Warfarin&quot;]\n\t) MedicationOrder\n\twhere\tMedicationOrder.intent = 'order'\n\t\tand GetExtension(MedicationOrder.extension, 'http://example.org/fhir/extensions/doNotPerform').value is true\n\t\t//MedicationOrder.doNotPerform is true // Needs a QI-Core extension to support\n\t)\n\n\n//Done\ndefine &quot;No VTE Prophylaxis Medication Due to Medical Reason During ED Visit&quot;:\n\tfrom\n\t\t&quot;Encounter With Age Range and Without VTE Diagnosis or Obstetrical Conditions&quot; QualifyingEncounter,\n\t\t&quot;ED Visit&quot; EDVisit,\n\t\t&quot;No VTE Prophylaxis Medication Administered or Ordered&quot; NoVTEMedication\n\t\twhere FHIRHelpers.ToInterval(EDVisit.period) ends 1 hour or less on or before start of FHIRHelpers.ToInterval(QualifyingEncounter.period)\n\t\t\tand (singleton from NoVTEMedication.reasonCode in &quot;Medical Reason&quot;)\n\t\t// TODO: Profile of MedicationAdministration to ensure effective is a Period\n\t\t\tand Coalesce(NoVTEMedication.authoredOn, start of NoVTEMedication.effective) during FHIRHelpers.ToInterval(EDVisit.period)\n\t\treturn QualifyingEncounter\n\n//Done\ndefine &quot;No VTE Prophylaxis Medication Due to Medical Reason on Day of or Day After Admission&quot;:\n\tfrom\n\t\t&quot;Encounter With Age Range and Without VTE Diagnosis or Obstetrical Conditions&quot; QualifyingEncounter,\n\t\t&quot;No VTE Prophylaxis Medication Administered or Ordered&quot; NoVTEMedication\n\t\twhere (singleton from NoVTEMedication.reasonCode in &quot;Medical Reason&quot;)\n\t\t\tand Coalesce(NoVTEMedication.authoredOn, start of NoVTEMedication.effective) during VTEICU.&quot;CalendarDayOfOrDayAfter&quot;(start of FHIRHelpers.ToInterval(QualifyingEncounter.period))\n\t\treturn QualifyingEncounter\n\n//Done\ndefine &quot;No VTE Prophylaxis Device Due to Medical Reason on Day of or Day After Procedure&quot;:\n\tfrom\n\t\t&quot;Encounter With Age Range and Without VTE Diagnosis or Obstetrical Conditions&quot; QualifyingEncounter,\n\t\t[&quot;Procedure&quot;: &quot;General or Neuraxial Anesthesia&quot;] AnesthesiaProcedure,\n\t\t&quot;No VTE Prophylaxis Device Applied or Ordered&quot; NoVTEDevice\n\t\twhere NoVTEDevice.reasonCode in &quot;Medical Reason&quot;\n\t\t\tand AnesthesiaProcedure.status = 'completed'\n\t\t\t// TODO: Profile of procedure to ensure performed is a Period\n\t\t\tand AnesthesiaProcedure.performed ends 1 day after day of start of FHIRHelpers.ToInterval(QualifyingEncounter.period)\n\t\t\tand  Coalesce(NoVTEDevice.authoredOn, NoVTEDevice.recordedOn) during VTEICU.&quot;CalendarDayOfOrDayAfter&quot;(end of AnesthesiaProcedure.performed)\n\t\treturn QualifyingEncounter\n\n//Done\ndefine &quot;Admission Without VTE or Obstetrical Conditions&quot;:\n\t\t(Global.&quot;Inpatient Encounter&quot; InpatientEncounter\n\t\twhere not (\n\t\t    //Connectathon: still broken: temporarily removed pending HAPI FHIR server fix for maxClauseCount &gt; 1024\n            //Global.EncounterDiagnosis(InpatientEncounter).code in &quot;Obstetrics&quot; or\n\t\t\t\t\t\t\t\tGlobal.EncounterDiagnosis(InpatientEncounter).code in &quot;Venous Thromboembolism&quot;\n\t\t\t\t\t\t\t\tor Global.EncounterDiagnosis(InpatientEncounter).code in &quot;Obstetrics VTE&quot;\n\t\t\t\t\t\t\t)\n    )\n\t\tintersect (Global.&quot;Inpatient Encounter&quot; InpatientEncounter\n\t\t\t\twithout (\n\t\t            //Connectathon: still broken: temporarily removed pending HAPI FHIR server fix for maxClauseCount &gt; 1024\n                    //[&quot;Condition&quot;: code in &quot;Obstetrics&quot;] union\n\t\t\t\t\t\t\t\t\t[&quot;Condition&quot;: code in &quot;Venous Thromboembolism&quot;]\n\t\t\t\t\t\t\t\t\tunion [&quot;Condition&quot;: code in &quot;Obstetrics VTE&quot;])\tDiagnosis\n\t\t\t\tsuch that Diagnosis.clinicalStatus = 'active'\n        \t\tand Diagnosis.verificationStatus = 'confirmed'\n\t\t\t\t\t\tand Global.&quot;Normalize Onset&quot;(Diagnosis.onset) during Global.&quot;Hospitalization&quot;(InpatientEncounter)\n\t\t\t\t\t\t)\n\n//Done\ndefine &quot;No VTE Prophylaxis Medication Due to Medical Reason on Day of or Day After Procedure&quot;:\n\tfrom\n\t\t&quot;Encounter With Age Range and Without VTE Diagnosis or Obstetrical Conditions&quot; QualifyingEncounter,\n\t\t[&quot;Procedure&quot;: &quot;General or Neuraxial Anesthesia&quot;] AnesthesiaProcedure,\n\t\t&quot;No VTE Prophylaxis Medication Administered or Ordered&quot; NoVTEMedication\n\t\twhere NoVTEMedication.reasonCode in &quot;Medical Reason&quot;\n\t\t\tand AnesthesiaProcedure.status = 'completed'\n\t\t\tand AnesthesiaProcedure.performed ends 1 day after day of start of FHIRHelpers.ToInterval(QualifyingEncounter.period)\n\t\t\t// TODO: Profile of MedicationAdministration to ensure effective is a Period\n\t\t\tand Coalesce(NoVTEMedication.authoredOn, start of NoVTEMedication.effective) during VTEICU.&quot;CalendarDayOfOrDayAfter&quot;(end of AnesthesiaProcedure.performed)\n\t\treturn QualifyingEncounter\n\n\n//Done\ndefine &quot;Encounter Less Than 2 Days&quot;:\n\t&quot;Encounter With Age Range and Without VTE Diagnosis or Obstetrical Conditions&quot; QualifyingEncounter\n\t\twhere Global.&quot;LengthInDays&quot;(FHIRHelpers.ToInterval(QualifyingEncounter.period))&lt; 2\n\n\n//Done\ndefine &quot;SCIP VTE Selected Surgery&quot;:\n\t(\n\t\t//Connectathon: still broken: temporarily removed pending HAPI FHIR server fix for maxClauseCount &gt; 1024\n\t\t// [&quot;Procedure&quot;: &quot;General Surgery&quot;]\n\t\t// union\n        [&quot;Procedure&quot;: &quot;Gynecological Surgery&quot;]\n\t\tunion [&quot;Procedure&quot;: &quot;Hip Fracture Surgery&quot;]\n\t\tunion [&quot;Procedure&quot;: &quot;Hip Replacement Surgery&quot;]\n\t\tunion [&quot;Procedure&quot;: &quot;Intracranial Neurosurgery&quot;]\n\t\tunion [&quot;Procedure&quot;: &quot;Knee Replacement Surgery&quot;]\n\t\tunion [&quot;Procedure&quot;: &quot;Urological Surgery&quot;] ) P\n\t\twhere P.status = 'completed'\n\n\n//Done\ndefine &quot;Intervention Comfort Measures&quot;:\n\t([&quot;ProcedureRequest&quot;: &quot;Comfort Measures&quot;] P\n\t\twhere P.intent = 'order')\n\t\tunion\n\t\t([&quot;Procedure&quot;: &quot;Comfort Measures&quot;] IntervetionPerformed\n\t\twhere IntervetionPerformed.status = 'completed')\n\n//Done\ndefine &quot;Intervention Comfort Measures on Day of or Day After Start of Hospitalization&quot;:\n\t&quot;Encounter With Age Range and Without VTE Diagnosis or Obstetrical Conditions&quot; QualifyingEncounter\n\t\twith &quot;Intervention Comfort Measures&quot; ComfortMeasure\n\t// TODO: Profile of procedure to ensure performed is a Period\n\t\t\tsuch that Coalesce(ComfortMeasure.authoredOn, start of ComfortMeasure.performed) 1 day or less on or after day of start of Global.&quot;Hospitalization&quot;(QualifyingEncounter)\n\n//Done\ndefine &quot;Intervention Comfort Measures on Day of or Day After Procedure&quot;:\n\tfrom\n\t\t&quot;Encounter With Age Range and Without VTE Diagnosis or Obstetrical Conditions&quot; QualifyingEncounter,\n\t\t[&quot;Procedure&quot;: &quot;General or Neuraxial Anesthesia&quot;] AnesthesiaProcedure,\n\t\t&quot;Intervention Comfort Measures&quot; ComfortMeasure\n\t\twhere  AnesthesiaProcedure.status = 'completed'\n\t\t\t\tand AnesthesiaProcedure.performed ends 1 day after day of start of FHIRHelpers.ToInterval(QualifyingEncounter.period)\n\t\t\t\tand Coalesce(ComfortMeasure.authoredOn, start of ComfortMeasure.performed) 1 day or less on or after day of end of AnesthesiaProcedure.performed\n\n//Done\ndefine &quot;VTE Prophylaxis by Medication Administered or Device Applied&quot;:\n\t( [&quot;MedicationAdministration&quot;: medication in &quot;Low Dose Unfractionated Heparin for VTE Prophylaxis&quot;] VTEMedication\n\t\t\twhere VTEMedication.status = 'completed'\n\t\t\t\t\t\tand VTEMedication.dosage.route in &quot;Subcutaneous route&quot;\n            return start of VTEMedication.effective\n\t)\n\t\t//JR: code is not an attribute of MedicationAdministration.  Used medication instead.\n\t\tunion ([&quot;MedicationAdministration&quot;: medication in &quot;Low Molecular Weight Heparin for VTE Prophylaxis&quot;] VTEMedication return start of VTEMedication.effective)\n\t\tunion ([&quot;MedicationAdministration&quot;: medication in &quot;Injectable Factor Xa Inhibitor for VTE Prophylaxis&quot;] VTEMedication return start of VTEMedication.effective)\n\t\tunion ([&quot;MedicationAdministration&quot;: medication in &quot;Warfarin&quot;] VTEMedication return start of VTEMedication.effective)\n\t\tunion\n            (\n                (\n                    [&quot;DeviceUseStatement&quot;] DeviceUseStatement\n                        where DeviceUseStatement.status = 'completed'\n                ) ValidDeviceUseStatement\n                with [Device] Device\n                such that Last(Split(ValidDeviceUseStatement.device.reference, '/')) = Device.id\n                    and (\n                        Device.type in &quot;Venous foot pumps (VFP)&quot;\n                            or Device.type in &quot;Intermittent pneumatic compression devices (IPC)&quot;\n                            or Device.type in &quot;Graduated compression stockings (GCS)&quot;\n                    )\n            ) DeviceApplied\n        where DeviceApplied.status = 'completed'\n        return Coalesce(DeviceApplied.recordedOn, start of DeviceApplied.whenUsed)\n\n//Done\ndefine &quot;VTE Prophylaxis Received on Day of or Day After Admission or Procedure&quot;:\n\t( from\n\t\t\t&quot;Encounter With Age Range and Without VTE Diagnosis or Obstetrical Conditions&quot; QualifyingEncounter,\n\t\t\t&quot;VTE Prophylaxis by Medication Administered or Device Applied&quot; VTEProphylaxisDate\n\t\t\t// TODO: Profile of MedicationAdministration to ensure effective is a Period\n        where VTEProphylaxisDate during VTEICU.&quot;CalendarDayOfOrDayAfter&quot;(start of FHIRHelpers.ToInterval(QualifyingEncounter.period))\n        return QualifyingEncounter\n\t)\n\t\tunion ( from\n\t\t\t\t&quot;Encounter With Age Range and Without VTE Diagnosis or Obstetrical Conditions&quot; QualifyingEncounter,\n\t\t\t\t[&quot;Procedure&quot;: &quot;General or Neuraxial Anesthesia&quot;] AnesthesiaProcedure,\n\t\t\t\t&quot;VTE Prophylaxis by Medication Administered or Device Applied&quot; VTEProphylaxisDate\n            where AnesthesiaProcedure.performed ends 1 day after day of start of FHIRHelpers.ToInterval(QualifyingEncounter.period)\n                and VTEProphylaxisDate during VTEICU.&quot;CalendarDayOfOrDayAfter&quot;(end of AnesthesiaProcedure.performed)\n            return QualifyingEncounter\n\t\t)\n\n\n//Done\ndefine &quot;Medication Oral Factor Xa Inhibitor Administered on Day of or Day After Admission or Procedure&quot;:\n\t( from\n\t\t\t&quot;Encounter With Age Range and Without VTE Diagnosis or Obstetrical Conditions&quot; QualifyingEncounter,\n\t\t\t[&quot;MedicationAdministration&quot;: medication in &quot;Oral Factor Xa Inhibitor for VTE Prophylaxis or VTE Treatment&quot;] FactorXaMedication\n\t\t\twhere FactorXaMedication.effective starts during VTEICU.&quot;CalendarDayOfOrDayAfter&quot;(start of FHIRHelpers.ToInterval(QualifyingEncounter.period))\n\t\t\treturn QualifyingEncounter\n\t)\n\t\tunion ( from\n\t\t\t\t&quot;Encounter With Age Range and Without VTE Diagnosis or Obstetrical Conditions&quot; QualifyingEncounter,\n\t\t\t\t[&quot;Procedure&quot;: &quot;General or Neuraxial Anesthesia&quot;] AnesthesiaProcedure,\n\t\t\t\t[&quot;MedicationAdministration&quot;: medication in &quot;Oral Factor Xa Inhibitor for VTE Prophylaxis or VTE Treatment&quot;] FactorXaMedication\n\t\t\t\twhere AnesthesiaProcedure.status = 'completed'\n\t\t\t\tand AnesthesiaProcedure.performed ends 1 day after day of start of FHIRHelpers.ToInterval(QualifyingEncounter.period)\n\t\t\t\t\tand FactorXaMedication.effective starts during VTEICU.&quot;CalendarDayOfOrDayAfter&quot;(end of AnesthesiaProcedure.performed)\n\t\t\t\treturn QualifyingEncounter\n\t\t)\n\n//Done\ndefine &quot;Encounter With Prior or Present Diagnosis of Atrial Fibrillation or VTE&quot;:\n\t( &quot;Encounter With Age Range and Without VTE Diagnosis or Obstetrical Conditions&quot; QualifyingEncounter\n\t\t\twith [&quot;Condition&quot;: code in &quot;Atrial Fibrillation/Flutter&quot;] AtrialFibrillation\n\t\t\t\tsuch that AtrialFibrillation.clinicalStatus = 'active'\n\t\t\t\tand AtrialFibrillation.verificationStatus = 'confirmed'\n\t\t\t\tand Global.&quot;Normalize Onset&quot;(AtrialFibrillation.onset) on or before end of FHIRHelpers.ToInterval(QualifyingEncounter.period)\n\t)\n\t\tunion ( &quot;Encounter With Age Range and Without VTE Diagnosis or Obstetrical Conditions&quot; QualifyingEncounter\n\t\t\t\twhere Global.EncounterDiagnosis(QualifyingEncounter).code in &quot;Atrial Fibrillation/Flutter&quot;\n\t\t\t)\n\t\tunion ( &quot;Encounter With Age Range and Without VTE Diagnosis or Obstetrical Conditions&quot; QualifyingEncounter\n\t\t\t\twith [&quot;Condition&quot;: code in &quot;Venous Thromboembolism&quot;] VTEDiagnosis\n\t\t\t\t\tsuch that  VTEDiagnosis.clinicalStatus in { 'inactive', 'remission', 'resolved' }\n\t\t\t\t\tand VTEDiagnosis.verificationStatus = 'confirmed'\n\t\t\t\t\tand Global.&quot;Normalize Onset&quot;(VTEDiagnosis.onset) before start of FHIRHelpers.ToInterval(QualifyingEncounter.period)\n\t\t)\n\n//Done\ndefine &quot;Encounter With ICU Location Stay 1 Day or More&quot;:\n\t&quot;Encounter With Age Range and Without VTE Diagnosis or Obstetrical Conditions&quot; QualifyingEncounter\n\t\twhere exists ( QualifyingEncounter.location Location\n\t\t\t\twhere Global.GetLocation(Location.location).type in &quot;Intensive Care Unit&quot;\n\t\t\t\t\tand Global.&quot;LengthInDays&quot;(Location.period)&gt;= 1\n\t\t\t\t\tand Location.period starts during VTEICU.&quot;CalendarDayOfOrDayAfter&quot;(start of FHIRHelpers.ToInterval(QualifyingEncounter.period))\n\t\t)\n\n\n//Done\ndefine &quot;Encounter With Principal Diagnosis of Mental Disorder or Stroke&quot;:\n\t&quot;Encounter With Age Range and Without VTE Diagnosis or Obstetrical Conditions&quot; QualifyingEncounter\n\t\twhere\n            //Connectathon: still broken: temporarily removed pending HAPI FHIR server fix for maxClauseCount &gt; 1024\n            //Global.PrincipalDiagnosis(QualifyingEncounter).code in &quot;Mental Health Diagnoses&quot;\n\t\t\t//or\n            Global.PrincipalDiagnosis(QualifyingEncounter).code in &quot;Hemorrhagic Stroke&quot;\n\t\t\tor Global.PrincipalDiagnosis(QualifyingEncounter).code in &quot;Ischemic Stroke&quot;\n\n//Done\n// TODO: Define an ordinality extension to a Procedure profile and ask Patient Administration and/or Patient Care to review\ndefine &quot;Encounter With Principal Procedure of SCIP VTE Selected Surgery&quot;:\n\t&quot;Encounter With Age Range and Without VTE Diagnosis or Obstetrical Conditions&quot; QualifyingEncounter\n\t\t//Connectathon: pending cql_engine fix #262 (FHIR 3.0.0 model info issue with Extension.url)\n\t\twith ( &quot;SCIP VTE Selected Surgery&quot; Procedure\n\t\t\twhere GetExtension(Procedure.extension, 'http://example.org/StructureDefinition/ordinality').value ~ &quot;Principal&quot; ) SelectedProcedure\n\t\t\tsuch that SelectedProcedure.performed during FHIRHelpers.ToInterval( QualifyingEncounter.period)\n\n//Done\ndefine &quot;Denominator Exclusions&quot;:\n\t&quot;Encounter Less Than 2 Days&quot;\n\t\tunion &quot;Encounter With ICU Location Stay 1 Day or More&quot;\n\t\tunion &quot;Encounter With Principal Diagnosis of Mental Disorder or Stroke&quot;\n\t\tunion &quot;Encounter With Principal Procedure of SCIP VTE Selected Surgery&quot;\n\t\tunion &quot;Intervention Comfort Measures on Day of or Day After Start of Hospitalization&quot;\n\t\tunion &quot;Intervention Comfort Measures on Day of or Day After Procedure&quot;\n\n//Done\ndefine &quot;Encounter With Age Range and Without VTE Diagnosis or Obstetrical Conditions&quot;:\n\t( Global.&quot;Inpatient Encounter&quot; InpatientEncounter\n\t\t\twith [&quot;Patient&quot;] BirthDate\n\t\t\t\tsuch that Global.&quot;CalendarAgeInYearsAt&quot;(ToDateTime(BirthDate.birthDate), start of FHIRHelpers.ToInterval(InpatientEncounter.period)) &gt;= 18\n\t)\n\t\tintersect &quot;Admission Without VTE or Obstetrical Conditions&quot;\n\n//Done\ndefine &quot;Encounter With Prior or Present Procedure of Hip or Knee Replacement Surgery&quot;:\n\t&quot;Encounter With Age Range and Without VTE Diagnosis or Obstetrical Conditions&quot; QualifyingEncounter\n\t\twith ( [&quot;Procedure&quot;: &quot;Hip Replacement Surgery&quot;]\n\t\t\tunion [&quot;Procedure&quot;: &quot;Knee Replacement Surgery&quot;] ) HipKneeProcedure\n\t\t\tsuch that HipKneeProcedure.status = 'completed'\n\t\t\t\tand HipKneeProcedure.performed starts on or before end of FHIRHelpers.ToInterval(QualifyingEncounter.period)\n\n//Done\ndefine &quot;Low Risk for VTE or Anticoagulant Administered&quot;:\n\t&quot;Low Risk for VTE or Anticoagulant Administered During ED Visit&quot;\n\t\tunion &quot;Low Risk for VTE or Anticoagulant Administered on Day of or Day After Admission&quot;\n\t\tunion &quot;Low Risk for VTE or Anticoagulant Administered on Day of or Day After Procedure&quot;\n\n//Done\ndefine &quot;No VTE Prophylaxis Due to Medical Reason&quot;:\n\t( &quot;No VTE Prophylaxis Medication Due to Medical Reason During ED Visit&quot;\n\t\t\tintersect &quot;No VTE Prophylaxis Device Due to Medical Reason During ED Visit&quot;\n\t)\n\t\tunion ( &quot;No VTE Prophylaxis Medication Due to Medical Reason on Day of or Day After Admission&quot;\n\t\t\t\tintersect &quot;No VTE Prophylaxis Device Due to Medical Reason on Day of or Day After Admission&quot;\n\t\t)\n\t\tunion ( &quot;No VTE Prophylaxis Medication Due to Medical Reason on Day of or Day After Procedure&quot;\n\t\t\t\tintersect &quot;No VTE Prophylaxis Device Due to Medical Reason on Day of or Day After Procedure&quot;\n\t\t)\n\n//Done\ndefine &quot;No VTE Prophylaxis Due to Patient Refusal During ED Visit&quot;:\n\tfrom\n\t\t&quot;Encounter With Age Range and Without VTE Diagnosis or Obstetrical Conditions&quot; QualifyingEncounter,\n\t\t&quot;ED Visit&quot; EDVisit,\n\t\t&quot;No VTE Prophylaxis Medication or Device Due to Patient Refusal&quot; PatientRefusal\n\t\twhere EDVisit.period ends 1 hour or less on or before start of QualifyingEncounter.period\n\t\t\tand Coalesce(PatientRefusal.effective, PatientRefusal.authoredOn, PatientRefusal.recordedOn) during EDVisit.period\n\t\treturn QualifyingEncounter\n\n//Done\ndefine &quot;No VTE Prophylaxis Due to Patient Refusal on Day of or Day After Admission&quot;:\n\tfrom\n\t\t&quot;Encounter With Age Range and Without VTE Diagnosis or Obstetrical Conditions&quot; QualifyingEncounter,\n\t\t&quot;No VTE Prophylaxis Medication or Device Due to Patient Refusal&quot; PatientRefusal\n\t\twhere Coalesce(start of PatientRefusal.effective, PatientRefusal.authoredOn, PatientRefusal.recordedOn)\n      during VTEICU.&quot;CalendarDayOfOrDayAfter&quot;(start of QualifyingEncounter.period)\n\t\treturn QualifyingEncounter\n\n//Done\ndefine &quot;No VTE Prophylaxis Due to Patient Refusal on Day of or Day After Procedure&quot;:\n\tfrom\n\t\t&quot;Encounter With Age Range and Without VTE Diagnosis or Obstetrical Conditions&quot; QualifyingEncounter,\n\t\t[&quot;Procedure&quot;: &quot;General or Neuraxial Anesthesia&quot;] AnesthesiaProcedure,\n\t\t&quot;No VTE Prophylaxis Medication or Device Due to Patient Refusal&quot; PatientRefusal\n\t\twhere AnesthesiaProcedure.performed ends 1 day after day of start of QualifyingEncounter.period\n\t\t\tand Coalesce(start of PatientRefusal.effective, PatientRefusal.authoredOn, PatientRefusal.recordedOn)\n        during VTEICU.&quot;CalendarDayOfOrDayAfter&quot;(end of AnesthesiaProcedure.performed)\n\t\treturn QualifyingEncounter\n\n//Done\ndefine &quot;No VTE Prophylaxis Medication or Device Due to Patient Refusal&quot;:\n\t( &quot;No VTE Prophylaxis Medication Administered or Ordered&quot;\n\t\tunion &quot;No VTE Prophylaxis Device Applied or Ordered&quot; ) NoVTEProphylaxis\n\t\twhere GetExtension(NoVTEProphylaxis.extension, 'http://example.org/StructureDefinition/notDoneReason').value in &quot;Patient Refusal&quot;\n\n//Done\ndefine &quot;No VTE Prophylaxis Due to Patient Refusal&quot;:\n\t&quot;No VTE Prophylaxis Due to Patient Refusal During ED Visit&quot;\n\t\tunion &quot;No VTE Prophylaxis Due to Patient Refusal on Day of or Day After Admission&quot;\n\t\tunion &quot;No VTE Prophylaxis Due to Patient Refusal on Day of or Day After Procedure&quot;\n\n//Done\ndefine &quot;Numerator&quot;:\n\t&quot;VTE Prophylaxis Received on Day of or Day After Admission or Procedure&quot;\n\t\tunion ( &quot;Medication Oral Factor Xa Inhibitor Administered on Day of or Day After Admission or Procedure&quot;\n\t\t\t\tintersect ( &quot;Encounter With Prior or Present Diagnosis of Atrial Fibrillation or VTE&quot;\n\t\t\t\t\t\tunion &quot;Encounter With Prior or Present Procedure of Hip or Knee Replacement Surgery&quot;\n\t\t\t\t)\n\t\t)\n\t\tunion &quot;Low Risk for VTE or Anticoagulant Administered&quot;\n\t\tunion &quot;No VTE Prophylaxis Due to Medical Reason&quot;\n\t\tunion &quot;No VTE Prophylaxis Due to Patient Refusal&quot;\n\n//Done\ndefine &quot;Is In Low Risk for VTE or On Anticoagulant&quot;:\n    //Connectathon: verified that this is corrected\n\t( [&quot;Observation&quot;: &quot;Risk for venous thromboembolism&quot;] VTERiskAssessment\n\t\t\twhere VTERiskAssessment.value in &quot;Low Risk&quot;\n\t)\n\n/*\n// TODO: Issues with constructing the FHIR types here...\n\t\tunion ( [&quot;Observation&quot;: &quot;INR&quot;] INRLabTest\n\t\t\t\twhere INRLabTest.value as Quantity &gt; 3.0\n\t\t\t\treturn &quot;Observation&quot; { id: INRLabTest.id, effective: INRLabTest.issued }\n\t\t)\n\t\tunion ((( [&quot;MedicationAdministration&quot;: &quot;Unfractionated Heparin&quot;] UnfractionatedHeparin\n\t\t\t\t\twhere UnfractionatedHeparin.dosage.route in &quot;Intravenous route&quot;\n\t\t\t\t\t\t)\n\t\t\t\tunion [&quot;MedicationAdministration&quot;: &quot;Direct Thrombin Inhibitor&quot;]\n\t\t\t\tunion [&quot;MedicationAdministration&quot;: &quot;Glycoprotein IIb/IIIa Inhibitors&quot;] ) AnticoagulantMedication\n\t\t\t\t\treturn &quot;Observation&quot; { id: AnticoagulantMedication.id, effective: start of effective}\n\t\t)\n*/\n\n//Done\ndefine &quot;Low Risk for VTE or Anticoagulant Administered During ED Visit&quot;:\n\tfrom\n\t\t&quot;Encounter With Age Range and Without VTE Diagnosis or Obstetrical Conditions&quot; QualifyingEncounter,\n\t\t&quot;ED Visit&quot; EDVisit,\n\t\t&quot;Is In Low Risk for VTE or On Anticoagulant&quot; VTERiskAssessment\n\t\twhere FHIRHelpers.ToInterval(EDVisit.period) ends 1 hour or less on or before start of FHIRHelpers.ToInterval(QualifyingEncounter.period)\n\t\t\tand VTERiskAssessment.issued during FHIRHelpers.ToInterval(EDVisit.period)\n\t\treturn QualifyingEncounter\n\n//Done\ndefine &quot;Low Risk for VTE or Anticoagulant Administered on Day of or Day After Admission&quot;:\n\t&quot;Encounter With Age Range and Without VTE Diagnosis or Obstetrical Conditions&quot; QualifyingEncounter\n\t\twith &quot;Is In Low Risk for VTE or On Anticoagulant&quot; VTERiskAssessment\n\t\t\tsuch that VTERiskAssessment.issued during VTEICU.&quot;CalendarDayOfOrDayAfter&quot;(start of FHIRHelpers.ToInterval(QualifyingEncounter.period))\n\n//Done\ndefine &quot;Low Risk for VTE or Anticoagulant Administered on Day of or Day After Procedure&quot;:\n\tfrom\n\t\t&quot;Encounter With Age Range and Without VTE Diagnosis or Obstetrical Conditions&quot; QualifyingEncounter,\n\t\t[&quot;Procedure&quot;: &quot;General or Neuraxial Anesthesia&quot;] AnesthesiaProcedure,\n\t\t&quot;Is In Low Risk for VTE or On Anticoagulant&quot; VTERiskAssessment\n\t\twhere AnesthesiaProcedure.performed ends 1 day after day of start of FHIRHelpers.ToInterval(QualifyingEncounter.period)\n\t\t\tand VTERiskAssessment.issued during VTEICU.&quot;CalendarDayOfOrDayAfter&quot;(end of FHIRHelpers.ToInterval(AnesthesiaProcedure.performed))\n\t\treturn QualifyingEncounter\n</code></pre>\r\n                    \r\n                    \r\n                </td>\r\n            </tr>\r\n        \r\n    </table>\r\n</div>"
      },
      "extension": [ {
        "url": "http://hl7.org/fhir/us/cqfmeasures/StructureDefinition/cqfm-softwaresystem",
        "valueReference": {
          "reference": "cqf-tooling"
        }
      } ],
      "version": "7.4.000",
      "name": "EXM108_FHIR3",
      "status": "active",
      "experimental": true,
      "type": {
        "coding": [ {
          "system": "http://hl7.org/fhir/codesystem-library-type.html",
          "code": "logic-library"
        } ]
      },
      "content": [ {
        "contentType": "text/cql",
        "data": ""
      } ]
    },
    "request": {
      "method": "PUT",
      "url": "Library/library-EXM108-FHIR3-7.4.000"
    }
  }, {
    "resource": {
      "resourceType": "Encounter",
      "id": "denom-EXM108-FHIR3-1",
      "meta": {
        "profile": [ "http://hl7.org/fhir/us/core/StructureDefinition/us-core-encounter" ]
      },
      "status": "finished",
      "class": {
        "system": "http://terminology.hl7.org/CodeSystem/v3-ActCode",
        "code": "IMP",
        "display": "inpatient encounter"
      },
      "type": [ {
        "coding": [ {
          "system": "http://snomed.info/sct",
          "code": "32485007",
          "display": "Hospital admission (procedure)"
        } ]
      } ],
      "subject": {
        "reference": "Patient/denom-EXM108-FHIR3"
      },
      "period": {
        "start": "2019-01-16T08:30:00-07:00",
        "end": "2019-01-20T08:30:00-07:00"
      },
      "diagnosis": [ {
        "condition": {
          "reference": "Condition/denom-EXM108-FHIR3-2"
        }
      } ],
      "hospitalization": {
        "dischargeDisposition": {
          "coding": [ {
            "system": "http://snomed.info/sct",
            "code": "306701001",
            "display": "Discharge to community hospital (procedure)"
          } ]
        }
      }
    },
    "request": {
      "method": "PUT",
      "url": "Encounter/denom-EXM108-FHIR3-1"
    }
  }, {
    "resource": {
      "resourceType": "Condition",
      "id": "denom-EXM108-FHIR3-2",
      "meta": {
        "profile": [ "http://hl7.org/fhir/us/core/StructureDefinition/us-core-condition" ]
      },
      "verificationStatus": "confirmed",
      "category": [ {
        "coding": [ {
          "system": "http://terminology.hl7.org/CodeSystem/condition-category",
          "code": "encounter-diagnosis",
          "display": "Encounter Diagnosis"
        } ]
      } ],
      "code": {
        "coding": [ {
          "system": "http://snomed.info/sct",
          "code": "10327003",
          "display": "Cocaine-induced mood disorder (disorder)"
        } ]
      },
      "subject": {
        "reference": "Patient/denom-EXM108-FHIR3"
      }
    },
    "request": {
      "method": "PUT",
      "url": "Condition/denom-EXM108-FHIR3-2"
    }
  }, {
    "resource": {
      "resourceType": "Bundle",
      "id": "tests-Procedure-bundle",
      "type": "transaction",
      "entry": [ {
        "resource": {
          "resourceType": "Procedure",
          "id": "denom-EXM108-FHIR3-4",
          "meta": {
            "profile": [ "http://hl7.org/fhir/us/core/StructureDefinition/us-core-procedure" ]
          },
          "status": "completed",
          "code": {
            "coding": [ {
              "system": "http://snomed.info/sct",
              "code": "112943005",
              "display": "Epidural injection of anesthetic substance"
            } ]
          },
          "subject": {
            "reference": "Patient/denom-EXM108-FHIR3"
          },
          "performedPeriod": {
            "start": "2019-01-17T08:30:00-07:00",
            "end": "2019-01-17T10:30:00-07:00"
          }
        },
        "request": {
          "method": "PUT",
          "url": "Procedure/denom-EXM108-FHIR3-4"
        }
      } ]
    },
    "request": {
      "method": "PUT",
      "url": "tests-Procedure-bundle"
    }
  }, {
    "resource": {
      "resourceType": "Bundle",
      "id": "tests-Condition-bundle",
      "type": "transaction",
      "entry": [ {
        "resource": {
          "resourceType": "Condition",
          "id": "numer-EXM108-FHIR3-2",
          "meta": {
            "profile": [ "http://hl7.org/fhir/us/core/StructureDefinition/us-core-condition" ]
          },
          "verificationStatus": "confirmed",
          "category": [ {
            "coding": [ {
              "system": "http://terminology.hl7.org/CodeSystem/condition-category",
              "code": "encounter-diagnosis",
              "display": "Encounter Diagnosis"
            } ]
          } ],
          "code": {
            "coding": [ {
              "system": "http://snomed.info/sct",
              "code": "213213007",
              "display": "Cardiac arrest as a complication of care (disorder)"
            } ]
          },
          "subject": {
            "reference": "Patient/numer-EXM108-FHIR3"
          }
        },
        "request": {
          "method": "PUT",
          "url": "Condition/numer-EXM108-FHIR3-2"
        }
      } ]
    },
    "request": {
      "method": "PUT",
      "url": "tests-Condition-bundle"
    }
  }, {
    "resource": {
      "resourceType": "Procedure",
      "id": "denom-EXM108-FHIR3-4",
      "meta": {
        "profile": [ "http://hl7.org/fhir/us/core/StructureDefinition/us-core-procedure" ]
      },
      "status": "completed",
      "code": {
        "coding": [ {
          "system": "http://snomed.info/sct",
          "code": "112943005",
          "display": "Epidural injection of anesthetic substance"
        } ]
      },
      "subject": {
        "reference": "Patient/denom-EXM108-FHIR3"
      },
      "performedPeriod": {
        "start": "2019-01-17T08:30:00-07:00",
        "end": "2019-01-17T10:30:00-07:00"
      }
    },
    "request": {
      "method": "PUT",
      "url": "Procedure/denom-EXM108-FHIR3-4"
    }
  }, {
    "resource": {
      "resourceType": "Bundle",
      "id": "tests-Encounter-bundle",
      "type": "transaction",
      "entry": [ {
        "resource": {
          "resourceType": "Encounter",
          "id": "numer-EXM108-FHIR3-3",
          "meta": {
            "profile": [ "http://hl7.org/fhir/us/core/StructureDefinition/us-core-encounter" ]
          },
          "status": "finished",
          "class": {
            "system": "http://terminology.hl7.org/CodeSystem/v3-ActCode",
            "code": "IMP",
            "display": "inpatient encounter"
          },
          "type": [ {
            "coding": [ {
              "system": "http://snomed.info/sct",
              "code": "32485007",
              "display": "Hospital admission (procedure)"
            } ]
          } ],
          "subject": {
            "reference": "Patient/numer-EXM108-FHIR3"
          },
          "period": {
            "start": "2019-01-16T08:30:00-07:00",
            "end": "2019-01-20T08:30:00-07:00"
          },
          "diagnosis": [ {
            "condition": {
              "reference": "Condition/numer-EXM108-FHIR3-2"
            },
            "role": {
              "coding": [ {
                "system": "http://hl7.org/fhir/diagnosis-role",
                "code": "billing",
                "display": "Billing"
              } ]
            },
            "rank": 1
          } ],
          "hospitalization": {
            "dischargeDisposition": {
              "coding": [ {
                "system": "http://snomed.info/sct",
                "code": "306701001",
                "display": "Discharge to community hospital (procedure)"
              } ]
            }
          }
        },
        "request": {
          "method": "PUT",
          "url": "Encounter/numer-EXM108-FHIR3-3"
        }
      } ]
    },
    "request": {
      "method": "PUT",
      "url": "tests-Encounter-bundle"
    }
  }, {
    "resource": {
      "resourceType": "MedicationAdministration",
      "id": "denom-EXM108-FHIR3-5",
      "status": "completed",
      "medicationCodeableConcept": {
        "coding": [ {
          "system": "http://www.nlm.nih.gov/research/umls/rxnorm",
          "code": "854228",
          "display": "0.3 ML Enoxaparin sodium 100 MG/ML Prefilled Syringe"
        } ]
      },
      "subject": {
        "reference": "Patient/denom-EXM108-FHIR3"
      },
      "effectivePeriod": {
        "start": "2019-01-19T12:30:00-07:00",
        "end": "2019-01-19T13:00:00-07:00"
      }
    },
    "request": {
      "method": "PUT",
      "url": "MedicationAdministration/denom-EXM108-FHIR3-5"
    }
  }, {
    "resource": {
      "resourceType": "MeasureReport",
      "id": "measurereport-denom-EXM108-FHIR3",
      "contained": [ {
        "resourceType": "Bundle",
        "id": "e1a37198-69ec-41c5-9fcf-4929c231bc44",
        "type": "collection",
        "entry": [ {
          "fullUrl": "30efef19-7b8e-48a9-b2f5-b3eaa313b6a7",
          "resource": {
            "resourceType": "List",
            "id": "30efef19-7b8e-48a9-b2f5-b3eaa313b6a7",
            "title": "initial-population",
            "entry": [ {
              "item": {
                "reference": "denom-EXM108-FHIR3"
              }
            }, {
              "item": {
                "reference": "denom-EXM108-FHIR3-2"
              }
            }, {
              "item": {
                "reference": "denom-EXM108-FHIR3-1"
              }
            } ]
          }
        }, {
          "fullUrl": "Patient/denom-EXM108-FHIR3",
          "resource": {
            "resourceType": "Patient",
            "id": "denom-EXM108-FHIR3",
            "meta": {
              "profile": [ "http://hl7.org/fhir/us/core/StructureDefinition/us-core-patient" ]
            },
            "extension": [ {
              "url": "http://hl7.org/fhir/us/core/StructureDefinition/us-core-race",
              "extension": [ {
                "url": "ombCategory",
                "valueCoding": {
                  "system": "urn:oid:2.16.840.1.113883.6.238",
                  "code": "2106-3",
                  "display": "White"
                }
              } ]
            }, {
              "url": "http://hl7.org/fhir/us/core/StructureDefinition/us-core-ethnicity",
              "extension": [ {
                "url": "ombCategory",
                "valueCoding": {
                  "system": "urn:oid:2.16.840.1.113883.6.238",
                  "code": "2186-5",
                  "display": "Not Hispanic or Latino"
                }
              } ]
            } ],
            "identifier": [ {
              "use": "usual",
              "type": {
                "coding": [ {
                  "system": "http://terminology.hl7.org/CodeSystem/v2-0203",
                  "code": "MR",
                  "display": "Medical Record Number"
                } ]
              },
              "system": "http://hospital.smarthealthit.org",
              "value": "999999996"
            } ],
            "name": [ {
              "family": "Jones",
              "given": [ "Frank" ]
            } ],
            "gender": "male",
            "birthDate": "1951-05-01"
          }
        }, {
          "fullUrl": "45e42bd6-3157-4777-9e1c-d7c13465d7fa",
          "resource": {
            "resourceType": "List",
            "id": "45e42bd6-3157-4777-9e1c-d7c13465d7fa",
            "title": "denominator",
            "entry": [ {
              "item": {
                "reference": "denom-EXM108-FHIR3-4"
              }
            } ]
          }
        }, {
          "fullUrl": "9681b25d-c100-4626-9510-4f0e48385a24",
          "resource": {
            "resourceType": "List",
            "id": "9681b25d-c100-4626-9510-4f0e48385a24",
            "title": "numerator",
            "entry": [ {
              "item": {
                "reference": "denom-EXM108-FHIR3-4"
              }
            }, {
              "item": {
                "reference": "denom-EXM108-FHIR3-2"
              }
            }, {
              "item": {
                "reference": "denom-EXM108-FHIR3-5"
              }
            } ]
          }
        }, {
          "fullUrl": "Condition/denom-EXM108-FHIR3-2",
          "resource": {
            "resourceType": "Condition",
            "id": "denom-EXM108-FHIR3-2",
            "meta": {
              "profile": [ "http://hl7.org/fhir/us/core/StructureDefinition/us-core-condition" ]
            },
            "verificationStatus": "confirmed",
            "category": [ {
              "coding": [ {
                "system": "http://terminology.hl7.org/CodeSystem/condition-category",
                "code": "encounter-diagnosis",
                "display": "Encounter Diagnosis"
              } ]
            } ],
            "code": {
              "coding": [ {
                "system": "http://snomed.info/sct",
                "code": "10327003",
                "display": "Cocaine-induced mood disorder (disorder)"
              } ]
            },
            "subject": {
              "reference": "Patient/denom-EXM108-FHIR3"
            }
          }
        }, {
          "fullUrl": "Procedure/denom-EXM108-FHIR3-4",
          "resource": {
            "resourceType": "Procedure",
            "id": "denom-EXM108-FHIR3-4",
            "meta": {
              "profile": [ "http://hl7.org/fhir/us/core/StructureDefinition/us-core-procedure" ]
            },
            "status": "completed",
            "code": {
              "coding": [ {
                "system": "http://snomed.info/sct",
                "code": "112943005",
                "display": "Epidural injection of anesthetic substance"
              } ]
            },
            "subject": {
              "reference": "Patient/denom-EXM108-FHIR3"
            },
            "performedPeriod": {
              "start": "2019-01-17T08:30:00-07:00",
              "end": "2019-01-17T10:30:00-07:00"
            }
          }
        }, {
          "fullUrl": "Encounter/denom-EXM108-FHIR3-1",
          "resource": {
            "resourceType": "Encounter",
            "id": "denom-EXM108-FHIR3-1",
            "meta": {
              "profile": [ "http://hl7.org/fhir/us/core/StructureDefinition/us-core-encounter" ]
            },
            "status": "finished",
            "class": {
              "system": "http://terminology.hl7.org/CodeSystem/v3-ActCode",
              "code": "IMP",
              "display": "inpatient encounter"
            },
            "type": [ {
              "coding": [ {
                "system": "http://snomed.info/sct",
                "code": "32485007",
                "display": "Hospital admission (procedure)"
              } ]
            } ],
            "subject": {
              "reference": "Patient/denom-EXM108-FHIR3"
            },
            "period": {
              "start": "2019-01-16T08:30:00-07:00",
              "end": "2019-01-20T08:30:00-07:00"
            },
            "diagnosis": [ {
              "condition": {
                "reference": "Condition/denom-EXM108-FHIR3-2"
              }
            } ],
            "hospitalization": {
              "dischargeDisposition": {
                "coding": [ {
                  "system": "http://snomed.info/sct",
                  "code": "306701001",
                  "display": "Discharge to community hospital (procedure)"
                } ]
              }
            }
          }
        }, {
          "fullUrl": "MedicationAdministration/denom-EXM108-FHIR3-5",
          "resource": {
            "resourceType": "MedicationAdministration",
            "id": "denom-EXM108-FHIR3-5",
            "meta": { },
            "status": "completed",
            "medicationCodeableConcept": {
              "coding": [ {
                "system": "http://www.nlm.nih.gov/research/umls/rxnorm",
                "code": "854228",
                "display": "0.3 ML Enoxaparin sodium 100 MG/ML Prefilled Syringe"
              } ]
            },
            "subject": {
              "reference": "Patient/denom-EXM108-FHIR3"
            },
            "effectivePeriod": {
              "start": "2019-01-19T12:30:00-07:00",
              "end": "2019-01-19T13:00:00-07:00"
            }
          }
        } ]
      } ],
      "status": "complete",
      "type": "individual",
      "measure": {
        "reference": "Measure/measure-EXM108-FHIR3-7.4.000"
      },
      "patient": {
        "reference": "Patient/denom-EXM108-FHIR3"
      },
      "period": {
        "start": "2019-01-01T00:00:00-07:00",
        "end": "2019-12-31T00:00:00-07:00"
      },
      "group": [ {
        "identifier": {
          "value": "group-1"
        },
        "population": [ {
          "code": {
            "coding": [ {
              "system": "http://terminology.hl7.org/CodeSystem/measure-population",
              "code": "initial-population",
              "display": "Initial Population"
            } ]
          },
          "count": 1
        }, {
          "code": {
            "coding": [ {
              "system": "http://terminology.hl7.org/CodeSystem/measure-population",
              "code": "numerator",
              "display": "Numerator"
            } ]
          },
          "count": 0
        }, {
          "code": {
            "coding": [ {
              "system": "http://terminology.hl7.org/CodeSystem/measure-population",
              "code": "denominator",
              "display": "Denominator"
            } ]
          },
          "count": 1
        }, {
          "code": {
            "coding": [ {
              "system": "http://terminology.hl7.org/CodeSystem/measure-population",
              "code": "denominator-exclusion",
              "display": "Denominator Exclusion"
            } ]
          },
          "count": 0
        } ],
        "measureScore": 0.0
      } ],
      "evaluatedResources": {
        "reference": "#e1a37198-69ec-41c5-9fcf-4929c231bc44"
      }
    },
    "request": {
      "method": "PUT",
      "url": "MeasureReport/measurereport-denom-EXM108-FHIR3"
    }
  }, {
    "resource": {
      "resourceType": "Patient",
      "id": "denom-EXM108-FHIR3",
      "meta": {
        "profile": [ "http://hl7.org/fhir/us/core/StructureDefinition/us-core-patient" ]
      },
      "extension": [ {
        "url": "http://hl7.org/fhir/us/core/StructureDefinition/us-core-race",
        "extension": [ {
          "url": "ombCategory",
          "valueCoding": {
            "system": "urn:oid:2.16.840.1.113883.6.238",
            "code": "2106-3",
            "display": "White"
          }
        } ]
      }, {
        "url": "http://hl7.org/fhir/us/core/StructureDefinition/us-core-ethnicity",
        "extension": [ {
          "url": "ombCategory",
          "valueCoding": {
            "system": "urn:oid:2.16.840.1.113883.6.238",
            "code": "2186-5",
            "display": "Not Hispanic or Latino"
          }
        } ]
      } ],
      "identifier": [ {
        "use": "usual",
        "type": {
          "coding": [ {
            "system": "http://terminology.hl7.org/CodeSystem/v2-0203",
            "code": "MR",
            "display": "Medical Record Number"
          } ]
        },
        "system": "http://hospital.smarthealthit.org",
        "value": "999999996"
      } ],
      "name": [ {
        "family": "Jones",
        "given": [ "Frank" ]
      } ],
      "gender": "male",
      "birthDate": "1951-05-01"
    },
    "request": {
      "method": "PUT",
      "url": "Patient/denom-EXM108-FHIR3"
    }
  }, {
    "resource": {
      "resourceType": "Measure",
      "id": "measure-EXM108-FHIR3-7.4.000",
      "meta": {
        "versionId": "4",
        "lastUpdated": "2019-09-13T19:28:07.582+00:00",
        "profile": [ "http://hl7.org/fhir/us/cqfmeasures/StructureDefinition/proportion-measure-cqfm" ]
      },
      "text": {
        "status": "generated",
        "div": "<div xmlns=\"http://www.w3.org/1999/xhtml\"><table style=\"width: 60%; border-bottom: none;\" class=\"header_table\">          <!-- <tr th:if=\"${resource.hasId()}\" style=\"vertical-align: top;\"><th style=\"background-color:#656565; width:20%\" scope=\"row\"><span class=\"td_label\">Id: </span></th><td style=\"width:80%\" colspan=\"3\"  th:narrative=\"${resource.id}\"></td></tr> -->          <!-- <th:block th:each=\"ident, iter : ${resource.identifier}\"><tr th:if=\"${ident.type.coding[0].code == 'CMS'}\" style=\"vertical-align: top;\"><td style=\"background-color:#656565; width:20%\" scope=\"row\"><span class=\"td_label\">eCQM Identifier (Measure Authoring Tool)</span></td><td style=\"width:30%\" th:narrative=\"${ident.value}\"></td><td style=\"background-color:#656565; width:20%\" scope=\"row\"><span class=\"td_label\">eCQM Version number</span></td><td style=\"width:30%\" th:narrative=\"${resource.version}\"></td></tr></th:block><th:block th:each=\"ident, iter : ${resource.identifier}\"><tr th:if=\"${ident.type.coding[0].code == 'NQF'}\" style=\"vertical-align: top;\"><td style=\"background-color:#656565; width:20%\" scope=\"row\"><span class=\"td_label\">NQF Number</span></td><td style=\"width:30%\" th:narrative=\"${ident.value}\"></td><td style=\"background-color:#656565; width:20%\" scope=\"row\"><span class=\"td_label\">GUID</span></td><td style=\"width:30%\" th:narrative=\"${resource.url}\"></td></tr></th:block> --><tr><td scope=\"row\" style=\"background-color:#656565; width:20%\"><span class=\"td_label\">Measurement Period</span></td><td colspan=\"3\" style=\"width:80%\">null - null</td></tr>          <!-- <tr><td style=\"background-color:#656565; width:20%\" scope=\"row\"><span class=\"td_label\">Measure Steward</span></td><td style=\"width:80%\" colspan=\"3\" th:narrative=\"${resource.publisher}\"></td></tr><tr><td style=\"background-color:#656565; width:20%\" scope=\"row\"><span class=\"td_label\">Measure Developer</span></td><td style=\"width:80%\" colspan=\"3\" th:narrative=\"${resource.publisher}\"></td></tr> -->          <!-- <tr th:if=\"${resource.hasDisclaimer()}\"><td style=\"background-color:#656565; width:20%\" scope=\"row\"><span class=\"td_label\">Disclaimer</span></td><td style=\"width:80%\" colspan=\"3\"><div style=\"width:660px;overflow-x:hidden;overflow-y:auto\"><pre th:text=\"${resource.disclaimer}\"></pre>\n                </div>\n            </td>\n        </tr> -->\n        <tr>\n            <td scope=\"row\" style=\"background-color:#656565; width:20%\"><span class=\"td_label\">Copyright and Disclaimer Notice</span></td>\n            <td colspan=\"3\" style=\"width:80%\">\n                <div style=\"width:660px;overflow-x:hidden;overflow-y:auto\">\n                    \n                    \n                    <pre>HEDIS%26reg; is a registered trademark of the National Committee for Quality Assurance (NCQA). The HEDIS measures and specifications are owned by NCQA. NCQA holds a copyright in the HEDIS measures and specifications and may rescind or alter these measures and specifications at any time. Users of the HEDIS measures and specifications shall not have the right to alter, enhance or otherwise modify the HEDIS measures and specifications, and shall not disassemble, recompile or reverse engineer the HEDIS measures and specifications. Anyone desiring to use or reproduce the materials, subject to licensed user restrictions, without modification for an internal, non-commercial purpose may do so without obtaining any approval from NCQA. Use of the Rules for Allowable Adjustments of HEDIS to make permitted adjustments of the materials does not constitute a modification. All other uses, including a commercial use, or any external reproduction, distribution and publication must be approved by NCQA and are subject to a license at the discretion of NCQA.\n\nHEDIS measures and specifications are not clinical guidelines, do not establish a standard of medical care and have not been tested for all potential applications. The measures and specifications are provided “as is” without warranty of any kind. NCQA makes no representations, warranties or endorsements about the quality of any product, test or protocol identified as numerator compliant or otherwise identified as meeting the requirements of a HEDIS measure or specification. NCQA also makes no representations, warranties or endorsements about the quality of any organization or clinician who uses or reports performance measures. NCQA has no liability to anyone who relies on HEDIS measures and specifications or data reflective of performance under such measures and specifications.\n\nCalculated measure results, based on unadjusted HEDIS specifications, may not be termed “Health Plan HEDIS rates” until the logic used to produce the measure results has been certified by NCQA and has been audited and designated reportable by an NCQA-Certified Auditor. Such results should be referred to as “Uncertified, Unaudited Health Plan HEDIS Rates.”\n\nCalculated measure results, based on adjusted HEDIS specifications, may not be termed “Adjusted HEDIS rates” until the logic used to produce the measure results has been certified by NCQA and has been audited and designated reportable by an NCQA-Certified Auditor. Such results should be referred to as “Adjusted, Uncertified, Unaudited HEDIS Rates.”\n\nLimited proprietary coding is contained in the measure specifications for convenience. Users of the proprietary code sets should obtain all necessary licenses from the owners of these code sets. NCQA disclaims all liability for use or accuracy of any coding contained in the specifications.\n\nThe American Medical Association holds a copyright to the CPT%26reg; codes contained in the measures specifications.\n\nThe American Hospital Association holds a copyright to the Uniform Bill Codes (UB) contained in the measure specifications. The UB Codes in the HEDIS specifications are included with the permission of the AHA. The UB Codes contained in the HEDIS specifications may be used by health plans and other health care delivery organizations for the purpose of calculating and reporting HEDIS measure results or using HEDIS measure results for their internal quality improvement purposes. All other uses of the UB Codes require a license from the AHA. Anyone desiring to use the UB Codes in a commercial Product(s) to generate HEDIS results, or for any other commercial use, must obtain a commercial use license directly from the AHA. To inquire about licensing, contact ub04@healthforum.com.\n\nSome measure specifications contain coding from LOINC%26reg; (http://loinc.org). The LOINC table, LOINC codes, LOINC panels and form file, LOINC linguistic variants file, LOINC/RSNA Radiology Playbook, and LOINC/IEEE Medical Device Code Mapping Table are copyright %26copy; 1995-2019, Regenstrief Institute, Inc. and the Logical Observation Identifiers Names and Codes (LOINC) Committee and is available at no cost under the license at http://loinc.org/terms-of-use.\n\n&quot;SNOMED” and “SNOMED CT” are registered trademarks of the International Health Terminology Standards Development Organization (IHTSDO).\n\n“HL7” is the registered trademark of Health Level Seven International.\n\n%26copy; 2019 by the National Committee for Quality Assurance, all rights reserved.</pre>\n                </div>\n            </td>\n        </tr>\n        \n        \n        <tr>\n            <td colspan=\"4\" scope=\"row\" style=\"background-color:#656565; width:100%\"><span class=\"td_label\">Characteristics</span></td>\n        </tr>\n        \n                  <!-- <tr th:if=\"${resource.hasCompositeScoring()}\">\n            <td style=\"width:20%\" scope=\"row\"><span class=\"td_label\">Composite Scoring</span></td>\n            <td style=\"width:80%\" colspan=\"3\" th:narrative=\"${resource.compositeScoring.getText().substring(0, 1).toUpperCase() + resource.compositeScoring.getText().substring(1)}\"></td>\n        </tr> -->\n        \n                  <!-- <tr th:if=\"${resource.hasStatus()}\" style=\"vertical-align: top;\">\n            <td style=\"background-color:#656565; width:20%\" scope=\"row\"><span class=\"td_label\">Status</span></td>\n            <td style=\"width:80%\" colspan=\"3\" th:narrative=\"${resource.status.toString().substring(0, 1).toUpperCase() + resource.status.toString().substring(1).toLowerCase()}\"></td>\n        </tr>\n        <tr th:if=\"${resource.hasPurpose()}\" style=\"vertical-align: top;\">\n            <td style=\"background-color:#656565; width:20%\" scope=\"row\"><span class=\"td_label\">Purpose</span></td>\n            <td style=\"width:80%\" colspan=\"3\" th:narrative=\"${resource.purpose}\"></td>\n        </tr>\n        <tr th:if=\"${resource.hasUsage()}\" style=\"vertical-align: top;\" >\n            <td style=\"background-color:#656565; width:20%\" scope=\"row\"><span class=\"td_label\">Usage</span></td>\n            <td style=\"width:80%\" colspan=\"3\" th:narrative=\"${resource.usage}\"></td>\n        </tr>\n        <th:block th:each=\"context, iter : ${resource.useContext}\" >\n            <tr style=\"vertical-align: top;\">\n                <td th:if=\"${iter.index == 0}\" th:rowspan=\"${iter.size}\" style=\"background-color:#656565; width:20%\" scope=\"row\"><span class=\"td_label\">Use Context</span></td>\n                <td style=\"width:80%\" colspan=\"3\" th:narrative=\"${context}\"></td>\n            </tr>\n        </th:block>\n        <th:block th:each=\"topics, iter : ${resource.topic}\" >\n            <tr style=\"vertical-align: top;\">\n                <td th:if=\"${iter.index == 0}\" th:rowspan=\"${iter.size}\" style=\"background-color:#656565; width:20%\" scope=\"row\"><span class=\"td_label\">Topic</span></td>\n                <td style=\"width:80%\" colspan=\"3\" th:narrative=\"${topics}\"></td>\n            </tr>\n        </th:block>\n        <th:block th:each=\"cont, iter : ${resource.contributor}\" >\n            <tr style=\"vertical-align: top;\">\n                <td th:if=\"${iter.index == 0}\" th:rowspan=\"${iter.size}\" style=\"background-color:#656565; width:20%\" scope=\"row\"><span class=\"td_label\">Contributor</span></td>\n                <td style=\"width:80%\" colspan=\"3\">\n                    <b><span th:narrative=\"${cont.type.toCode()}\"></span>: </b><span th:narrative=\"${cont.name}\"></span>\n                </td>\n            </tr>\n        </th:block> -->\n                  <!-- <th:block th:each=\"lib, iter : ${resource.library}\" >\n            <tr style=\"vertical-align: top;\">\n                <td th:if=\"${iter.index == 0}\" th:rowspan=\"${iter.size}\" style=\"background-color:#656565; width:20%\" scope=\"row\"><span class=\"td_label\">Library</span></td>\n                <td style=\"width:80%\" colspan=\"3\">\n                    <p th:if=\"${lib.hasIdentifier()}\"><b>identifier: </b><span th:narrative=\"${lib.identifier}\"></span></p>\n                    <p th:if=\"${lib.hasReference()}\"><b>reference: </b><span th:narrative=\"${lib.reference}\"></span></p>\n                    <p th:if=\"${lib.hasDisplay()}\"><b>display: </b><span th:narrative=\"${lib.display}\"></span></p>\n                </td>\n            </tr>\n        </th:block> -->\n        \n                  <!-- <tr th:if=\"${resource.hasRateAggregation()}\" >\n            <td style=\"background-color:#656565; width:20%\" scope=\"row\"><span class=\"td_label\">Rate Aggregation</span></td>\n            <td style=\"width:80%\" colspan=\"3\">\n                <div style=\"width:660px;overflow-x:hidden;overflow-y:auto\">\n                    <pre th:text=\"${resource.rateAggregation}\"></pre>\n                </div>\n            </td>\n        </tr>\n        <tr th:if=\"${resource.hasRationale()}\">\n            <td style=\"background-color:#656565; width:20%\" scope=\"row\"><span class=\"td_label\">Rationale</span></td>\n            <td style=\"width:80%\" colspan=\"3\">\n                <div style=\"width:660px;overflow-x:hidden;overflow-y:auto\">\n                    <pre th:text=\"${resource.rationale}\"></pre>\n                </div>\n            </td>\n        </tr> -->\n        <tr>\n            <td scope=\"row\" style=\"width:20%\"><span>Improvement Notation</span></td>\n            \n            \n        </tr>\n        \n        <tr>\n            <td colspan=\"4\" scope=\"row\" style=\"background-color:#656565; width:100%\"><span class=\"td_label\">Definitions</span></td>\n        </tr>\n        \n        \n                  <!-- <th:block th:each=\"groups, iter : ${resource.uniquePopulationGroup}\" >\n            <tr style=\"vertical-align: top;\">\n                <td style=\"background-color:#656565; width:20%\" scope=\"row\"><span class=\"td_label\" th:text=\"${groups.identifier.value}\"></span></td>\n                <td style=\"width:80%\" colspan=\"3\">\n                    <div style=\"width:660px;overflow-x:hidden;overflow-y:auto\">\n                        <pre th:text=\"${pops.description}\"></pre>\n                    </div>\n                </td>\n            </tr>\n        </th:block> -->\n    </table>\n    <table style=\"width: 60%; border-top: none; border-bottom: none\" class=\"header_table\">\n        \n    </table>\n    <table style=\"width: 60%; border-top: none;\" class=\"header_table\">\n                  <!-- <th:block th:each=\"supples, iter : ${resource.supplementalData}\">\n            <tr>\n                <th th:if=\"${iter.index == 0}\" th:rowspan=\"${iter.size}\" scope=\"row\"><b>Supplemental Data:</b></th>\n                <td style=\"width:80%\" colspan=\"3\" >\n                    <p style=\"margin-bottom: 5px;\" th:narrative=\"${supples.identifier}\"></p>\n                    <p style=\"margin-bottom: 5px;\" th:each=\"uses : ${supples.usage}\">\n                        <b>usage: </b>\n                        <span th:narrative=\"${uses}\"></span>\n                    </p>\n                    <p style=\"margin-bottom: 5px;\" th:if=\"${supples.hasCriteria()}\">\n                        <b>criteria: </b>\n                        <span th:narrative=\"${supples.criteria}\"></span>\n                    </p>\n                    <p style=\"margin-bottom: 5px;\" th:if=\"${supples.hasPath()}\">\n                        <b>path: </b>\n                        <span th:narrative=\"${supples.path}\"></span>\n                    </p>\n                </td>\n            </tr>\n        </th:block> -->\n                  <!-- <th:block th:each=\"param, iter : ${resource.parameter}\">\n            <tr style=\"vertical-align: top;\">\n                <th th:if=\"${iter.index == 0}\" th:rowspan=\"${iter.size}\" scope=\"row\"><b>Parameter: </b></th>\n                <td style=\"width:80%\" colspan=\"3\" >\n                    <span th:if=\"${param.hasName()}\">\n                        <b>name: </b>\n                        <span th:narrative=\"${param.name}\"></span>\n                        <br/>\n                    </span>\n                    <b>use: </b>\n                    <span th:narrative=\"${param.use.toCode()}\"></span>\n                    <br/>\n                    <span th:if=\"${param.hasMin()}\">\n                        <b>minimum cardinality: </b>\n                        <span th:narrative=\"${param.min}\"></span>\n                        <br/>\n                    </span>\n                    <span th:if=\"${param.hasMax()}\">\n                        <b>maximum cardinality: </b>\n                        <span th:narrative=\"${param.max}\"></span>\n                        <br/>\n                    </span>\n                    <b>type: </b>\n                    <span th:narrative=\"${param.type}\"></span>\n                    <br/>\n                    <span th:if=\"${param.hasDocumentation()}\">\n                        <b>documentation: </b>\n                        <span th:narrative=\"${param.documentation}\"></span>\n                        <br/>\n                    </span>\n                    <span th:if=\"${param.hasProfile()}\">\n                        <b>profile: </b>\n                        <span th:narrative=\"${param.profile}\"></span>\n                        <br/>\n                    </span>\n                    <p style=\"margin-bottom: 5px;\"></p>\n                </td>\n            </tr>\n        </th:block> -->\n                  <!-- <th:block th:each=\"dataReq, iter : ${resource.dataRequirement}\">\n            <tr style=\"vertical-align: top;\">\n                    <th th:if=\"${iter.index == 0}\" th:rowspan=\"${iter.size}\" scope=\"row\" ><b>Data Requirements: </b></th>\n                    <td style=\"width:80%\" colspan=\"3\" th:narrative=\"${dataReq}\"></td>\n            </tr>\n        </th:block> -->\n    </table>\n  <h2><a name=\"toc\">Table of Contents</a></h2>\n  <ul style=\"padding-left: 50px;\">\n   <li><a href=\"#d1e405\">Population Criteria</a></li>\n   <li><a href=\"#d1e649\">Definitions</a></li>\n   <li><a href=\"#d1e650\">Functions</a></li>\n   <li><a href=\"#d1e555\">Terminology</a></li>\n   <li><a href=\"#d1e647\">Data Criteria (QDM Data Elements)</a></li>\n   <li><a href=\"#d1e767\">Supplemental Data Elements</a></li>\n   <li><a href=\"#d1e879\">Risk Adjustment Variables</a></li>\n  </ul>\n  <div style=\"float:left; background:teal; height:3px; width:80%\"/>\n  \n  <h3><a name=\"d1e649\" href=\"#toc\">Definitions</a></h3>\n  \n  <h3><a name=\"d1e650\" href=\"#toc\">Functions</a></h3>\n  \n  <h3><a name=\"d1e555\" href=\"#toc\">Terminology</a></h3>\n  <div>\n   <ul style=\"padding-left: 50px;\">\n    \n   </ul>\n  </div>\n  <h3><a name=\"d1e647\" href=\"#toc\">Data Criteria (QDM Data Elements)</a></h3>\n  <div>\n    <ul style=\"padding-left: 50px;\">\n      \n    </ul>\n  </div>\n  <h3><a name=\"d1e767\" href=\"#toc\">Supplemental Data Elements</a></h3>\n  \n  <div>\n    <ul style=\"list-style:none;padding-left: 25px;\">\n        <li>None</li>\n    </ul>\n </div>\n  <h3><a name=\"d1e879\" href=\"#toc\">Risk Adjustment Variables</a></h3>\n  <div>\n   <ul style=\"list-style:none;padding-left: 25px;\">\n    <li>None</li>\n   </ul>\n  </div>\n  <div style=\"float:left; background:teal; height:3px; width:80%\"/>\n  <table>\n        \n                  <!-- <th:block th:each=\"con, iter : ${resource.content}\">\n            <tr th:if=\"${con.contentType == 'text/cql'}\" style=\"vertical-align: top;\">\n                <td style=\"background-color:#656565; width:20%\" scope=\"row\"><span class=\"td_label\">Content</span></td>\n                <td style=\"width:80%\" ><b>type: </b><span th:text=\"${con.contentType}\"></span></td>\n            </tr>\n            <tr th:if=\"${con.contentType == 'text/cql'}\">\n                <td style=\"width:100%\" colspan=\"2\" >\n                    <th:block th:if=\"${con.getData() != null }\" >\n                        <pre><code th:class=\"${con.contentType == 'text/cql' ? 'language-cql' : 'language-xml'}\" th:text=\"${new java.lang.String(con.getData())}\"></code></pre>\n                    </th:block>\n                    <th:block th:if=\"${con.getData() == null }\" >\n                        <span><i>%26lt;content is empty%26gt;</i></span>\n                    </th:block>\n                </td>\n            </tr>\n        </th:block > -->\n    </table>\n</div>"
      },
      "extension": [ {
        "url": "http://hl7.org/fhir/us/cqfmeasures/StructureDefinition/cqfm-populationBasis",
        "valueCode": "boolean"
      }, {
        "url": "http://hl7.org/fhir/us/cqfmeasures/StructureDefinition/cqfm-softwaresystem",
        "valueReference": {
          "reference": "cqf-tooling"
        }
      } ],
      "url": "http://hl7.org/fhir/us/cqfmeasures/Measure/measure-exm104-FHIR3",
      "identifier": [ {
        "type": {
          "coding": [ {
            "code": "NQF"
          } ]
        },
        "value": "0371"
      }, {
        "use": "official",
        "system": "http://hl7.org/fhir/cqi/ecqm/Measure/Identifier/cms",
        "value": "108"
      } ],
      "version": "7.4.000",
      "name": "EXM108",
      "title": "Venous Thromboembolism Prophylaxis",
      "status": "draft",
      "experimental": true,
      "publisher": "National Committee for Quality Assurance (NCQA)",
      "description": "This measure assesses the number of patients who received VTE prophylaxis or have documentation why no VTE prophylaxis was given the day of or the day after hospital admission or surgery end date for surgeries that start the day of or the day after hospital admission",
      "purpose": "Patients age 18 and older discharged from hospital inpatient acute care without a diagnosis of venous thromboembolism (VTE) or obstetrics with a length of stay less than or equal to 120 days that ends during the measurement period",
      "approvalDate": "2016-01-01",
      "lastReviewDate": "2019-08-19",
      "effectivePeriod": {
        "start": "2019-01-01",
        "end": "2019-12-31"
      },
      "useContext": [ {
        "code": {
          "code": "program"
        },
        "valueCodeableConcept": {
          "text": "eligible-provider"
        }
      } ],
      "jurisdiction": [ {
        "coding": [ {
          "system": "urn:iso:std:iso:3166",
          "code": "US"
        } ]
      } ],
      "topic": [ {
        "coding": [ {
          "system": "http://loinc.org",
          "code": "57024-2",
          "display": "Health Quality Measure Document"
        } ]
      } ],
      "contributor": [ {
        "type": "author",
        "name": "National Committee for Quality Assurance"
      } ],
      "contact": [ {
        "telecom": [ {
          "system": "url",
          "value": "http://www.ncqa.org/"
        } ]
      } ],
      "copyright": "Measure specifications are in the Public Domain. LOINC(R) is a registered trademark of the Regenstrief Institute. This material contains SNOMED Clinical Terms(R) (SNOMED CT(C)) copyright 2004-2017 International Health Terminology Standards Development Organization. All rights reserved.",
      "relatedArtifact": [ {
        "type": "citation",
        "citation": "Cohen AT, Tapson VF, Bergmann JF, et al. Venous thromboembolism risk and prophylaxis in the acute hospital care setting (ENDORSE study): a multinational cross-sectional study. Lancet. 2008;371:387-394."
      }, {
        "type": "citation",
        "citation": "\t\nGeerts  WH, Bergqvist D, Pineo GF, Heit JA, Samama CM, Lassen MR, Colwell CW. Prevention of venous thromboembolism. The Eighth ACCP Conference on antithrombotic and thrombolytic therapy. Chest. 2008; 133:381S-453S"
      }, {
        "type": "citation",
        "citation": "Guyatt, G.H., Akl, E.A., Crowther, M., Gutterman, D., Schunemann, H. Antithrombotic Therapy and Prevention of Thrombosis, 9th edition: American College of Chest Physicians Evidence-Based Clinical Practice Guidelines. CHEST 2012; 141(2)(Supp):7S-47S"
      }, {
        "type": "citation",
        "citation": "Kearon C, Akl EA, Comerota AJ, Prandoni P, Bounameaux H, Goldhaber SZ, Nelson ME, Wells PS, Gould MK, Dentali F, Crowther M, Kahn SR. Antithrombotic therapy for VTE disease: Antithrombotic Therapy and Prevention of Thrombosis, 9th Edition: American College of Chest Physicians Evidence-based Clinical Practice Guidelines. CHEST 2012 Feb; 141(2) (Supp):e419S-94S. "
      }, {
        "type": "citation",
        "citation": "National Quality Forum. National Voluntary Consensus Standards for Prevention and Care of Venous Thromboembolism: Policy, Preferred Practices, and Initial Performance Measures. A Consensus Report. Washington, DC. NQF; 2006"
      }, {
        "type": "citation",
        "citation": "\t\nShojania KG, Duncan BW, McDonald DM, et al. (Eds.). (2001). Making healthcare safer; A critical analysis of patient safety practices (Evidence Report/Technology Assessment No. 43). Prepared by the University of California at San Francisco-Stanford Evidenced-based Practice Center under Contract no. 290-97-0013 (AHRQ Publication NO.01-E058). Rockville, MD:Agency for Healthcare Research and Quality."
      } ],
      "library": [ {
        "reference": "Library/library-EXM108-FHIR3-7.4.000"
      } ],
      "disclaimer": "These performance measures are not clinical guidelines and do not establish a standard of medical care, and have not been tested for all potential applications. The measures and specifications are provided without warranty",
      "scoring": {
        "coding": [ {
          "system": "http://hl7.org/fhir/measure-scoring",
          "code": "proportion"
        } ]
      },
      "type": [ {
        "coding": [ {
          "system": "http://hl7.org/fhir/measure-type",
          "code": "process"
        } ]
      } ],
      "riskAdjustment": "none",
      "rateAggregation": "none",
      "rationale": "Hospitalized patients at high-risk for VTE may develop an asymptomatic deep vein thrombosis (DVT), and die from pulmonary embolism (PE) even before the diagnosis is suspected. The majority of fatal events occur as sudden or abrupt death, underscoring the importance of prevention as the most critical action step for reducing death from PE (Geerts, et al, 2008).\n\nThe estimated annual incidence of deep-vein thrombosis (DVT) and pulmonary embolism (PE), known collectively as venous thromboembolism (VTE), is approximately 900,000 (Geerts, et al, 2008). Approximately two-thirds of cases of DVT or PE are associated with recent hospitalization. This is consistent with the 2001 report by The Agency for Healthcare Research and Quality (AHRQ). AHRQ indicates that \"the appropriate application of effective preventive measures in hospitals has major potential for improving patient safety by reducing the incidence of venous thromboembolism\" (Shojania, 2001).\n\nDespite its proven effectiveness, rates of appropriate thromboprophylaxis remain low in both medical and surgical patients. A recent analysis from the ENDORSE survey, which evaluated prophylaxis rates in 17,084 major surgery patients, found that more than one third of patients at risk for VTE (38%) did not receive prophylaxis and that rates varied by surgery type (Cohen, et al., 2008).\n\nIn a review of evidence-based patient safety practices, the Agency for Healthcare Research and Quality defined thromboprophylaxis against VTE as the \"number one patient safety practice\" for hospitalized patients (Shojania, 2001). Updated \"safe practices\" published by the National Quality Forum (NQF) recommend routine evaluation of hospitalized patients for risk of VTE and use of appropriate prophylaxis (National Quality Forum. National Voluntary Consensus Standards for Prevention and Care of Venous Thromboembolism, 2006).\n\nAs noted by the ACCP, a vast number of randomized clinical trials provide irrefutable evidence that thromboprophylaxis reduces VTE events, and there are studies that have also shown that fatal PE is prevented by thromboprophylaxis (Geerts, et al. 2008).\n\nSome select surgeries have previously been monitored in the Surgical Care Improvement Project; since performance on these surgeries has achieved very high levels, they are not included in this measure.",
      "clinicalRecommendationStatement": "Failure to recognize and protect patients at risk for venous thromboembolism (VTE) increases the chances for acutely ill hospitalized patients at high risk for developing a deep vein thrombosis or dying from a pulmonary emboli. Screening all patients is the only evidence based practice in reducing incidence of disease.  All hospitalized patients should be evaluated for primary VTE prophylaxis, and given appropriate prophylaxis when indicated.",
      "improvementNotation": "increase",
      "guidance": "When low dose unfractionated heparin is administered for VTE Prophylaxis, the intended administration route for low dose unfractionated heparin is subcutaneous.\n\nReasons for no pharmacological and no mechanical VTE prophylaxis must be explicitly documented by the MD/APN/PA or pharmacist and linked with VTE prophylaxis. Ambulation alone is not a sufficient reason for not administering VTE prophylaxis. In order for ambulation/patient ambulating to be considered as an acceptable reason, there needs to be explicit documentation, e.g., \"patient out of bed and ambulating in halls - no VTE prophylaxis needed.\"",
      "group": [ {
        "identifier": {
          "value": "group-1"
        },
        "population": [ {
          "identifier": {
            "value": "initial-population-identifier"
          },
          "code": {
            "coding": [ {
              "system": "http://terminology.hl7.org/CodeSystem/measure-population",
              "code": "initial-population",
              "display": "Initial Population"
            } ]
          },
          "criteria": "Initial Population"
        }, {
          "identifier": {
            "value": "numerator-identifier"
          },
          "code": {
            "coding": [ {
              "system": "http://terminology.hl7.org/CodeSystem/measure-population",
              "code": "numerator",
              "display": "Numerator"
            } ]
          },
          "criteria": "Numerator"
        }, {
          "identifier": {
            "value": "denominator-identifier"
          },
          "code": {
            "coding": [ {
              "system": "http://terminology.hl7.org/CodeSystem/measure-population",
              "code": "denominator",
              "display": "Denominator"
            } ]
          },
          "criteria": "Denominator"
        }, {
          "identifier": {
            "value": "denominator-exclusions-identifier"
          },
          "code": {
            "coding": [ {
              "system": "http://terminology.hl7.org/CodeSystem/measure-population",
              "code": "denominator-exclusion",
              "display": "Denominator Exclusion"
            } ]
          },
          "criteria": "Denominator Exclusions"
        } ]
      } ],
      "supplementalData": [ {
        "identifier": {
          "value": "sde-ethnicity"
        },
        "usage": [ {
          "coding": [ {
            "system": "http://hl7.org/fhir/measure-data-usage",
            "code": "supplemental-data"
          } ]
        } ],
        "criteria": "SDE Ethnicity"
      }, {
        "identifier": {
          "value": "sde-payer"
        },
        "usage": [ {
          "coding": [ {
            "system": "http://hl7.org/fhir/measure-data-usage",
            "code": "supplemental-data"
          } ]
        } ],
        "criteria": "SDE Payer"
      }, {
        "identifier": {
          "value": "sde-race"
        },
        "usage": [ {
          "coding": [ {
            "system": "http://hl7.org/fhir/measure-data-usage",
            "code": "supplemental-data"
          } ]
        } ],
        "criteria": "SDE Race"
      }, {
        "identifier": {
          "value": "sde-sex"
        },
        "usage": [ {
          "coding": [ {
            "system": "http://hl7.org/fhir/measure-data-usage",
            "code": "supplemental-data"
          } ]
        } ],
        "criteria": "SDE Sex"
      } ]
    },
    "request": {
      "method": "PUT",
      "url": "Measure/measure-EXM108-FHIR3-7.4.000/_history/4"
    }
  }, {
    "resource": {
      "resourceType": "MeasureReport",
      "id": "measurereport-numer-EXM108-FHIR3",
      "contained": [ {
        "resourceType": "Bundle",
        "id": "13687040-a0ad-4346-b7c8-174e53903241",
        "type": "collection",
        "entry": [ {
          "fullUrl": "DeviceUseStatement/numer-EXM108-FHIR3-4",
          "resource": {
            "resourceType": "DeviceUseStatement",
            "id": "numer-EXM108-FHIR3-4",
            "meta": { },
            "status": "completed",
            "subject": {
              "reference": "Patient/numer-EXM108-FHIR3"
            },
            "whenUsed": {
              "start": "2019-01-17T12:30:00-07:00",
              "end": "2019-01-17T12:45:00-07:00"
            },
            "device": {
              "reference": "Device/numer-EXM108-FHIR3-5"
            }
          }
        }, {
          "fullUrl": "3be57d89-c27f-4923-8ecb-8ba7405d0413",
          "resource": {
            "resourceType": "List",
            "id": "3be57d89-c27f-4923-8ecb-8ba7405d0413",
            "title": "initial-population",
            "entry": [ {
              "item": {
                "reference": "numer-EXM108-FHIR3-2"
              }
            }, {
              "item": {
                "reference": "numer-EXM108-FHIR3-3"
              }
            }, {
              "item": {
                "reference": "numer-EXM108-FHIR3"
              }
            } ]
          }
        }, {
          "fullUrl": "Condition/numer-EXM108-FHIR3-2",
          "resource": {
            "resourceType": "Condition",
            "id": "numer-EXM108-FHIR3-2",
            "meta": {
              "profile": [ "http://hl7.org/fhir/us/core/StructureDefinition/us-core-condition" ]
            },
            "verificationStatus": "confirmed",
            "category": [ {
              "coding": [ {
                "system": "http://terminology.hl7.org/CodeSystem/condition-category",
                "code": "encounter-diagnosis",
                "display": "Encounter Diagnosis"
              } ]
            } ],
            "code": {
              "coding": [ {
                "system": "http://snomed.info/sct",
                "code": "213213007",
                "display": "Cardiac arrest as a complication of care (disorder)"
              } ]
            },
            "subject": {
              "reference": "Patient/numer-EXM108-FHIR3"
            }
          }
        }, {
          "fullUrl": "e789a14e-d0f0-4851-b66a-4c3e52d97cfd",
          "resource": {
            "resourceType": "List",
            "id": "e789a14e-d0f0-4851-b66a-4c3e52d97cfd",
            "title": "numerator",
            "entry": [ {
              "item": {
                "reference": "numer-EXM108-FHIR3-4"
              }
            }, {
              "item": {
                "reference": "numer-EXM108-FHIR3-2"
              }
            }, {
              "item": {
                "reference": "numer-EXM108-FHIR3-5"
              }
            } ]
          }
        }, {
          "fullUrl": "Encounter/numer-EXM108-FHIR3-3",
          "resource": {
            "resourceType": "Encounter",
            "id": "numer-EXM108-FHIR3-3",
            "meta": {
              "profile": [ "http://hl7.org/fhir/us/core/StructureDefinition/us-core-encounter" ]
            },
            "status": "finished",
            "class": {
              "system": "http://terminology.hl7.org/CodeSystem/v3-ActCode",
              "code": "IMP",
              "display": "inpatient encounter"
            },
            "type": [ {
              "coding": [ {
                "system": "http://snomed.info/sct",
                "code": "32485007",
                "display": "Hospital admission (procedure)"
              } ]
            } ],
            "subject": {
              "reference": "Patient/numer-EXM108-FHIR3"
            },
            "period": {
              "start": "2019-01-16T08:30:00-07:00",
              "end": "2019-01-20T08:30:00-07:00"
            },
            "diagnosis": [ {
              "condition": {
                "reference": "Condition/numer-EXM108-FHIR3-2"
              },
              "role": {
                "coding": [ {
                  "system": "http://hl7.org/fhir/diagnosis-role",
                  "code": "billing",
                  "display": "Billing"
                } ]
              },
              "rank": 1
            } ],
            "hospitalization": {
              "dischargeDisposition": {
                "coding": [ {
                  "system": "http://snomed.info/sct",
                  "code": "306701001",
                  "display": "Discharge to community hospital (procedure)"
                } ]
              }
            }
          }
        }, {
          "fullUrl": "Device/numer-EXM108-FHIR3-5",
          "resource": {
            "resourceType": "Device",
            "id": "numer-EXM108-FHIR3-5",
            "meta": { },
            "type": {
              "coding": [ {
                "system": "http://snomed.info/sct",
                "code": "442023007",
                "display": "Venous foot pump, device (physical object)"
              } ]
            },
            "patient": {
              "reference": "Patient/numer-EXM108-FHIR3"
            }
          }
        }, {
          "fullUrl": "57551388-2811-461a-9d7e-a927d001e4ef",
          "resource": {
            "resourceType": "List",
            "id": "57551388-2811-461a-9d7e-a927d001e4ef",
            "title": "denominator",
            "entry": [ {
              "item": {
                "reference": "numer-EXM108-FHIR3-2"
              }
            } ]
          }
        }, {
          "fullUrl": "Patient/numer-EXM108-FHIR3",
          "resource": {
            "resourceType": "Patient",
            "id": "numer-EXM108-FHIR3",
            "meta": {
              "profile": [ "http://hl7.org/fhir/us/core/StructureDefinition/us-core-patient" ]
            },
            "extension": [ {
              "url": "http://hl7.org/fhir/us/core/StructureDefinition/us-core-race",
              "extension": [ {
                "url": "ombCategory",
                "valueCoding": {
                  "system": "urn:oid:2.16.840.1.113883.6.238",
                  "code": "2106-3",
                  "display": "White"
                }
              } ]
            }, {
              "url": "http://hl7.org/fhir/us/core/StructureDefinition/us-core-ethnicity",
              "extension": [ {
                "url": "ombCategory",
                "valueCoding": {
                  "system": "urn:oid:2.16.840.1.113883.6.238",
                  "code": "2186-5",
                  "display": "Not Hispanic or Latino"
                }
              } ]
            } ],
            "identifier": [ {
              "use": "usual",
              "type": {
                "coding": [ {
                  "system": "http://terminology.hl7.org/CodeSystem/v2-0203",
                  "code": "MR",
                  "display": "Medical Record Number"
                } ]
              },
              "system": "http://hospital.smarthealthit.org",
              "value": "999999997"
            } ],
            "name": [ {
              "family": "Smith",
              "given": [ "Jill" ]
            } ],
            "gender": "female",
            "birthDate": "1963-09-13"
          }
        } ]
      } ],
      "status": "complete",
      "type": "individual",
      "measure": {
        "reference": "Measure/measure-EXM108-FHIR3-7.4.000"
      },
      "patient": {
        "reference": "Patient/numer-EXM108-FHIR3"
      },
      "period": {
        "start": "2019-01-01T00:00:00-07:00",
        "end": "2019-12-31T00:00:00-07:00"
      },
      "group": [ {
        "identifier": {
          "value": "group-1"
        },
        "population": [ {
          "code": {
            "coding": [ {
              "system": "http://terminology.hl7.org/CodeSystem/measure-population",
              "code": "initial-population",
              "display": "Initial Population"
            } ]
          },
          "count": 1
        }, {
          "code": {
            "coding": [ {
              "system": "http://terminology.hl7.org/CodeSystem/measure-population",
              "code": "numerator",
              "display": "Numerator"
            } ]
          },
          "count": 1
        }, {
          "code": {
            "coding": [ {
              "system": "http://terminology.hl7.org/CodeSystem/measure-population",
              "code": "denominator",
              "display": "Denominator"
            } ]
          },
          "count": 1
        }, {
          "code": {
            "coding": [ {
              "system": "http://terminology.hl7.org/CodeSystem/measure-population",
              "code": "denominator-exclusion",
              "display": "Denominator Exclusion"
            } ]
          },
          "count": 0
        } ],
        "measureScore": 1.0
      } ],
      "evaluatedResources": {
        "reference": "#13687040-a0ad-4346-b7c8-174e53903241"
      }
    },
    "request": {
      "method": "PUT",
      "url": "MeasureReport/measurereport-numer-EXM108-FHIR3"
    }
  }, {
    "resource": {
      "resourceType": "Bundle",
      "id": "tests-DeviceUseStatement-bundle",
      "type": "transaction",
      "entry": [ {
        "resource": {
          "resourceType": "DeviceUseStatement",
          "id": "numer-EXM108-FHIR3-4",
          "status": "completed",
          "subject": {
            "reference": "Patient/numer-EXM108-FHIR3"
          },
          "whenUsed": {
            "start": "2019-01-17T12:30:00-07:00",
            "end": "2019-01-17T12:45:00-07:00"
          },
          "device": {
            "reference": "Device/numer-EXM108-FHIR3-5"
          }
        },
        "request": {
          "method": "PUT",
          "url": "DeviceUseStatement/numer-EXM108-FHIR3-4"
        }
      } ]
    },
    "request": {
      "method": "PUT",
      "url": "tests-DeviceUseStatement-bundle"
    }
  }, {
    "resource": {
      "resourceType": "Device",
      "id": "numer-EXM108-FHIR3-5",
      "type": {
        "coding": [ {
          "system": "http://snomed.info/sct",
          "code": "442023007",
          "display": "Venous foot pump, device (physical object)"
        } ]
      },
      "patient": {
        "reference": "Patient/numer-EXM108-FHIR3"
      }
    },
    "request": {
      "method": "PUT",
      "url": "Device/numer-EXM108-FHIR3-5"
    }
  }, {
    "resource": {
      "resourceType": "Condition",
      "id": "numer-EXM108-FHIR3-2",
      "meta": {
        "profile": [ "http://hl7.org/fhir/us/core/StructureDefinition/us-core-condition" ]
      },
      "verificationStatus": "confirmed",
      "category": [ {
        "coding": [ {
          "system": "http://terminology.hl7.org/CodeSystem/condition-category",
          "code": "encounter-diagnosis",
          "display": "Encounter Diagnosis"
        } ]
      } ],
      "code": {
        "coding": [ {
          "system": "http://snomed.info/sct",
          "code": "213213007",
          "display": "Cardiac arrest as a complication of care (disorder)"
        } ]
      },
      "subject": {
        "reference": "Patient/numer-EXM108-FHIR3"
      }
    },
    "request": {
      "method": "PUT",
      "url": "Condition/numer-EXM108-FHIR3-2"
    }
  }, {
    "resource": {
      "resourceType": "DeviceUseStatement",
      "id": "numer-EXM108-FHIR3-4",
      "status": "completed",
      "subject": {
        "reference": "Patient/numer-EXM108-FHIR3"
      },
      "whenUsed": {
        "start": "2019-01-17T12:30:00-07:00",
        "end": "2019-01-17T12:45:00-07:00"
      },
      "device": {
        "reference": "Device/numer-EXM108-FHIR3-5"
      }
    },
    "request": {
      "method": "PUT",
      "url": "DeviceUseStatement/numer-EXM108-FHIR3-4"
    }
  }, {
    "resource": {
      "resourceType": "Bundle",
      "id": "tests-MedicationAdministration-bundle",
      "type": "transaction",
      "entry": [ {
        "resource": {
          "resourceType": "MedicationAdministration",
          "id": "denom-EXM108-FHIR3-5",
          "status": "completed",
          "medicationCodeableConcept": {
            "coding": [ {
              "system": "http://www.nlm.nih.gov/research/umls/rxnorm",
              "code": "854228",
              "display": "0.3 ML Enoxaparin sodium 100 MG/ML Prefilled Syringe"
            } ]
          },
          "subject": {
            "reference": "Patient/denom-EXM108-FHIR3"
          },
          "effectivePeriod": {
            "start": "2019-01-19T12:30:00-07:00",
            "end": "2019-01-19T13:00:00-07:00"
          }
        },
        "request": {
          "method": "PUT",
          "url": "MedicationAdministration/denom-EXM108-FHIR3-5"
        }
      } ]
    },
    "request": {
      "method": "PUT",
      "url": "tests-MedicationAdministration-bundle"
    }
  }, {
    "resource": {
      "resourceType": "Encounter",
      "id": "numer-EXM108-FHIR3-3",
      "meta": {
        "profile": [ "http://hl7.org/fhir/us/core/StructureDefinition/us-core-encounter" ]
      },
      "status": "finished",
      "class": {
        "system": "http://terminology.hl7.org/CodeSystem/v3-ActCode",
        "code": "IMP",
        "display": "inpatient encounter"
      },
      "type": [ {
        "coding": [ {
          "system": "http://snomed.info/sct",
          "code": "32485007",
          "display": "Hospital admission (procedure)"
        } ]
      } ],
      "subject": {
        "reference": "Patient/numer-EXM108-FHIR3"
      },
      "period": {
        "start": "2019-01-16T08:30:00-07:00",
        "end": "2019-01-20T08:30:00-07:00"
      },
      "diagnosis": [ {
        "condition": {
          "reference": "Condition/numer-EXM108-FHIR3-2"
        },
        "role": {
          "coding": [ {
            "system": "http://hl7.org/fhir/diagnosis-role",
            "code": "billing",
            "display": "Billing"
          } ]
        },
        "rank": 1
      } ],
      "hospitalization": {
        "dischargeDisposition": {
          "coding": [ {
            "system": "http://snomed.info/sct",
            "code": "306701001",
            "display": "Discharge to community hospital (procedure)"
          } ]
        }
      }
    },
    "request": {
      "method": "PUT",
      "url": "Encounter/numer-EXM108-FHIR3-3"
    }
  }, {
    "resource": {
      "resourceType": "Bundle",
      "id": "tests-Patient-bundle",
      "type": "transaction",
      "entry": [ {
        "resource": {
          "resourceType": "Patient",
          "id": "numer-EXM108-FHIR3",
          "meta": {
            "profile": [ "http://hl7.org/fhir/us/core/StructureDefinition/us-core-patient" ]
          },
          "extension": [ {
            "url": "http://hl7.org/fhir/us/core/StructureDefinition/us-core-race",
            "extension": [ {
              "url": "ombCategory",
              "valueCoding": {
                "system": "urn:oid:2.16.840.1.113883.6.238",
                "code": "2106-3",
                "display": "White"
              }
            } ]
          }, {
            "url": "http://hl7.org/fhir/us/core/StructureDefinition/us-core-ethnicity",
            "extension": [ {
              "url": "ombCategory",
              "valueCoding": {
                "system": "urn:oid:2.16.840.1.113883.6.238",
                "code": "2186-5",
                "display": "Not Hispanic or Latino"
              }
            } ]
          } ],
          "identifier": [ {
            "use": "usual",
            "type": {
              "coding": [ {
                "system": "http://terminology.hl7.org/CodeSystem/v2-0203",
                "code": "MR",
                "display": "Medical Record Number"
              } ]
            },
            "system": "http://hospital.smarthealthit.org",
            "value": "999999997"
          } ],
          "name": [ {
            "family": "Smith",
            "given": [ "Jill" ]
          } ],
          "gender": "female",
          "birthDate": "1963-09-13"
        },
        "request": {
          "method": "PUT",
          "url": "Patient/numer-EXM108-FHIR3"
        }
      } ]
    },
    "request": {
      "method": "PUT",
      "url": "tests-Patient-bundle"
    }
  } ]
}