{
  "resourceType": "Bundle",
  "id": "EXM105-FHIR3-8.0.000-bundle",
  "type": "transaction",
  "entry": [ {
    "resource": {
      "resourceType": "Bundle",
      "id": "tests-MedicationRequest-bundle",
      "type": "transaction",
      "entry": [ {
        "resource": {
          "resourceType": "MedicationRequest",
          "id": "denomex-EXM105-FHIR3-5",
          "status": "completed",
          "intent": "order",
          "category": {
            "coding": [ {
              "system": "http://terminology.hl7.org/CodeSystem/medicationrequest-category",
              "code": "discharge",
              "display": "Discharge"
            } ]
          },
          "medicationCodeableConcept": {
            "coding": [ {
              "system": "http://www.nlm.nih.gov/research/umls/rxnorm",
              "code": "197903",
              "display": "Lovastatin 10 MG Oral Tablet"
            } ]
          },
          "subject": {
            "reference": "Patient/denomex-EXM105-FHIR3"
          },
          "authoredOn": "2019-12-19T08:00:00-07:00"
        },
        "request": {
          "method": "PUT",
          "url": "MedicationRequest/denomex-EXM105-FHIR3-5"
        }
      } ]
    },
    "request": {
      "method": "PUT",
      "url": "tests-MedicationRequest-bundle"
    }
  }, {
    "resource": {
      "resourceType": "MedicationRequest",
      "id": "numer-EXM105-FHIR3-5",
      "status": "completed",
      "intent": "order",
      "category": {
        "coding": [ {
          "system": "http://terminology.hl7.org/CodeSystem/medicationrequest-category",
          "code": "discharge",
          "display": "Discharge"
        } ]
      },
      "medicationCodeableConcept": {
        "coding": [ {
          "system": "http://www.nlm.nih.gov/research/umls/rxnorm",
          "code": "197903",
          "display": "Lovastatin 10 MG Oral Tablet"
        } ]
      },
      "subject": {
        "reference": "Patient/numer-EXM105-FHIR3"
      },
      "authoredOn": "2019-12-19T08:00:00-07:00"
    },
    "request": {
      "method": "PUT",
      "url": "MedicationRequest/numer-EXM105-FHIR3-5"
    }
  }, {
    "resource": {
      "resourceType": "Encounter",
      "id": "denom-EXM105-FHIR3-2",
      "meta": {
        "profile": [ "http://hl7.org/fhir/us/core/StructureDefinition/us-core-encounter" ]
      },
      "status": "finished",
      "class": {
        "system": "http://terminology.hl7.org/CodeSystem/v3-ActCode",
        "code": "IMP",
        "display": "inpatient encounter"
      },
      "type": [ {
        "coding": [ {
          "system": "http://snomed.info/sct",
          "code": "32485007",
          "display": "Hospital admission (procedure)"
        } ]
      } ],
      "subject": {
        "reference": "Patient/denom-EXM105-FHIR3"
      },
      "period": {
        "start": "2019-08-21T00:00:00-06:00",
        "end": "2019-12-19T08:15:00-07:00"
      },
      "diagnosis": [ {
        "condition": {
          "reference": "Condition/denom-EXM105-FHIR3-1"
        },
        "role": {
          "coding": [ {
            "system": "http://hl7.org/fhir/diagnosis-role",
            "code": "billing",
            "display": "Billing"
          } ]
        },
        "rank": 1
      } ]
    },
    "request": {
      "method": "PUT",
      "url": "Encounter/denom-EXM105-FHIR3-2"
    }
  }, {
    "resource": {
      "resourceType": "MeasureReport",
      "id": "measurereport-numer-EXM105-FHIR3",
      "contained": [ {
        "resourceType": "Bundle",
        "id": "6be0c760-7a1f-48ad-9e88-7698f751ab24",
        "type": "collection",
        "entry": [ {
          "fullUrl": "4df519a4-9665-4129-b975-cd32bbab869d",
          "resource": {
            "resourceType": "List",
            "id": "4df519a4-9665-4129-b975-cd32bbab869d",
            "title": "initial-population",
            "entry": [ {
              "item": {
                "reference": "numer-EXM105-FHIR3-1"
              }
            }, {
              "item": {
                "reference": "numer-EXM105-FHIR3-2"
              }
            }, {
              "item": {
                "reference": "numer-EXM105-FHIR3"
              }
            } ]
          }
        }, {
          "fullUrl": "88ef9c76-51b2-4b11-ac8e-4630c441e87a",
          "resource": {
            "resourceType": "List",
            "id": "88ef9c76-51b2-4b11-ac8e-4630c441e87a",
            "title": "numerator",
            "entry": [ {
              "item": {
                "reference": "numer-EXM105-FHIR3-5"
              }
            } ]
          }
        }, {
          "fullUrl": "794d5145-c352-4707-877b-adfd25905b34",
          "resource": {
            "resourceType": "List",
            "id": "794d5145-c352-4707-877b-adfd25905b34",
            "title": "denominator",
            "entry": [ {
              "item": {
                "reference": "numer-EXM105-FHIR3-1"
              }
            } ]
          }
        }, {
          "fullUrl": "Condition/numer-EXM105-FHIR3-1",
          "resource": {
            "resourceType": "Condition",
            "id": "numer-EXM105-FHIR3-1",
            "meta": {
              "profile": [ "http://hl7.org/fhir/us/core/StructureDefinition/us-core-condition" ]
            },
            "verificationStatus": "confirmed",
            "category": [ {
              "coding": [ {
                "system": "http://terminology.hl7.org/CodeSystem/condition-category",
                "code": "encounter-diagnosis",
                "display": "Encounter Diagnosis"
              } ]
            } ],
            "code": {
              "coding": [ {
                "system": "http://snomed.info/sct",
                "code": "116288000",
                "display": "Paralytic stroke (disorder)"
              } ]
            },
            "subject": {
              "reference": "Patient/numer-EXM105-FHIR3"
            }
          }
        }, {
          "fullUrl": "Encounter/numer-EXM105-FHIR3-2",
          "resource": {
            "resourceType": "Encounter",
            "id": "numer-EXM105-FHIR3-2",
            "meta": {
              "profile": [ "http://hl7.org/fhir/us/core/StructureDefinition/us-core-encounter" ]
            },
            "status": "finished",
            "class": {
              "system": "http://terminology.hl7.org/CodeSystem/v3-ActCode",
              "code": "IMP",
              "display": "inpatient encounter"
            },
            "type": [ {
              "coding": [ {
                "system": "http://snomed.info/sct",
                "code": "32485007",
                "display": "Hospital admission (procedure)"
              } ]
            } ],
            "subject": {
              "reference": "Patient/numer-EXM105-FHIR3"
            },
            "period": {
              "start": "2019-08-21T00:00:00-06:00",
              "end": "2019-12-19T08:15:00-07:00"
            },
            "diagnosis": [ {
              "condition": {
                "reference": "Condition/numer-EXM105-FHIR3-1"
              },
              "role": {
                "coding": [ {
                  "system": "http://hl7.org/fhir/diagnosis-role",
                  "code": "billing",
                  "display": "Billing"
                } ]
              },
              "rank": 1
            } ]
          }
        }, {
          "fullUrl": "Patient/numer-EXM105-FHIR3",
          "resource": {
            "resourceType": "Patient",
            "id": "numer-EXM105-FHIR3",
            "meta": {
              "profile": [ "http://hl7.org/fhir/us/core/StructureDefinition/us-core-patient" ]
            },
            "extension": [ {
              "url": "http://hl7.org/fhir/us/core/StructureDefinition/us-core-race",
              "extension": [ {
                "url": "ombCategory",
                "valueCoding": {
                  "system": "urn:oid:2.16.840.1.113883.6.238",
                  "code": "2106-3",
                  "display": "White"
                }
              } ]
            }, {
              "url": "http://hl7.org/fhir/us/core/StructureDefinition/us-core-ethnicity",
              "extension": [ {
                "url": "ombCategory",
                "valueCoding": {
                  "system": "urn:oid:2.16.840.1.113883.6.238",
                  "code": "2186-5",
                  "display": "Not Hispanic or Latino"
                }
              } ]
            } ],
            "identifier": [ {
              "use": "usual",
              "type": {
                "coding": [ {
                  "system": "http://terminology.hl7.org/CodeSystem/v2-0203",
                  "code": "MR",
                  "display": "Medical Record Number"
                } ]
              },
              "system": "http://hospital.smarthealthit.org",
              "value": "9999999911"
            } ],
            "name": [ {
              "family": "Jones",
              "given": [ "Louise" ]
            } ],
            "gender": "female",
            "birthDate": "1971-11-21"
          }
        }, {
          "fullUrl": "MedicationRequest/numer-EXM105-FHIR3-5",
          "resource": {
            "resourceType": "MedicationRequest",
            "id": "numer-EXM105-FHIR3-5",
            "meta": { },
            "status": "completed",
            "intent": "order",
            "category": {
              "coding": [ {
                "system": "http://terminology.hl7.org/CodeSystem/medicationrequest-category",
                "code": "discharge",
                "display": "Discharge"
              } ]
            },
            "medicationCodeableConcept": {
              "coding": [ {
                "system": "http://www.nlm.nih.gov/research/umls/rxnorm",
                "code": "197903",
                "display": "Lovastatin 10 MG Oral Tablet"
              } ]
            },
            "subject": {
              "reference": "Patient/numer-EXM105-FHIR3"
            },
            "authoredOn": "2019-12-19T08:00:00-07:00"
          }
        } ]
      } ],
      "status": "complete",
      "type": "individual",
      "measure": {
        "reference": "Measure/measure-EXM105-FHIR3-8.0.000"
      },
      "patient": {
        "reference": "Patient/numer-EXM105-FHIR3"
      },
      "period": {
        "start": "2019-01-01T00:00:00-07:00",
        "end": "2019-12-31T00:00:00-07:00"
      },
      "group": [ {
        "identifier": {
          "value": "group-1"
        },
        "population": [ {
          "identifier": {
            "value": "initial-population"
          },
          "code": {
            "coding": [ {
              "code": "initial-population"
            } ]
          },
          "count": 1
        }, {
          "identifier": {
            "value": "numerator"
          },
          "code": {
            "coding": [ {
              "code": "numerator"
            } ]
          },
          "count": 1
        }, {
          "identifier": {
            "value": "denominator"
          },
          "code": {
            "coding": [ {
              "code": "denominator"
            } ]
          },
          "count": 1
        }, {
          "identifier": {
            "value": "denominator-exclusion"
          },
          "code": {
            "coding": [ {
              "code": "denominator-exclusion"
            } ]
          },
          "count": 0
        } ],
        "measureScore": 1.0
      } ],
      "evaluatedResources": {
        "reference": "#6be0c760-7a1f-48ad-9e88-7698f751ab24"
      }
    },
    "request": {
      "method": "PUT",
      "url": "MeasureReport/measurereport-numer-EXM105-FHIR3"
    }
  }, {
    "resource": {
      "resourceType": "Condition",
      "id": "denom-EXM105-FHIR3-1",
      "meta": {
        "profile": [ "http://hl7.org/fhir/us/core/StructureDefinition/us-core-condition" ]
      },
      "verificationStatus": "confirmed",
      "category": [ {
        "coding": [ {
          "system": "http://terminology.hl7.org/CodeSystem/condition-category",
          "code": "encounter-diagnosis",
          "display": "Encounter Diagnosis"
        } ]
      } ],
      "code": {
        "coding": [ {
          "system": "http://snomed.info/sct",
          "code": "116288000",
          "display": "Paralytic stroke (disorder)"
        } ]
      },
      "subject": {
        "reference": "Patient/denom-EXM105-FHIR3"
      }
    },
    "request": {
      "method": "PUT",
      "url": "Condition/denom-EXM105-FHIR3-1"
    }
  }, {
    "resource": {
      "resourceType": "Bundle",
      "id": "tests-Condition-bundle",
      "type": "transaction",
      "entry": [ {
        "resource": {
          "resourceType": "Condition",
          "id": "denomex-EXM105-FHIR3-1",
          "meta": {
            "profile": [ "http://hl7.org/fhir/us/core/StructureDefinition/us-core-condition" ]
          },
          "verificationStatus": "confirmed",
          "category": [ {
            "coding": [ {
              "system": "http://terminology.hl7.org/CodeSystem/condition-category",
              "code": "encounter-diagnosis",
              "display": "Encounter Diagnosis"
            } ]
          } ],
          "code": {
            "coding": [ {
              "system": "http://snomed.info/sct",
              "code": "116288000",
              "display": "Paralytic stroke (disorder)"
            } ]
          },
          "subject": {
            "reference": "Patient/denomex-EXM105-FHIR3"
          }
        },
        "request": {
          "method": "PUT",
          "url": "Condition/denomex-EXM105-FHIR3-1"
        }
      } ]
    },
    "request": {
      "method": "PUT",
      "url": "tests-Condition-bundle"
    }
  }, {
    "resource": {
      "resourceType": "Bundle",
      "id": "tests-Encounter-bundle",
      "type": "transaction",
      "entry": [ {
        "resource": {
          "resourceType": "Encounter",
          "id": "denomex-EXM105-FHIR3-2",
          "meta": {
            "profile": [ "http://hl7.org/fhir/us/core/StructureDefinition/us-core-encounter" ]
          },
          "status": "finished",
          "class": {
            "system": "http://terminology.hl7.org/CodeSystem/v3-ActCode",
            "code": "IMP",
            "display": "inpatient encounter"
          },
          "type": [ {
            "coding": [ {
              "system": "http://snomed.info/sct",
              "code": "32485007",
              "display": "Hospital admission (procedure)"
            } ]
          } ],
          "subject": {
            "reference": "Patient/denomex-EXM105-FHIR3"
          },
          "period": {
            "start": "2019-08-21T00:00:00-06:00",
            "end": "2019-12-19T08:15:00-07:00"
          },
          "diagnosis": [ {
            "condition": {
              "reference": "Condition/denomex-EXM105-FHIR3-1"
            },
            "role": {
              "coding": [ {
                "system": "http://hl7.org/fhir/diagnosis-role",
                "code": "billing",
                "display": "Billing"
              } ]
            },
            "rank": 1
          } ],
          "hospitalization": {
            "dischargeDisposition": {
              "coding": [ {
                "system": "http://snomed.info/sct",
                "code": "306701001",
                "display": "Discharge to community hospital (procedure)"
              } ]
            }
          }
        },
        "request": {
          "method": "PUT",
          "url": "Encounter/denomex-EXM105-FHIR3-2"
        }
      } ]
    },
    "request": {
      "method": "PUT",
      "url": "tests-Encounter-bundle"
    }
  }, {
    "resource": {
      "resourceType": "Patient",
      "id": "denomex-EXM105-FHIR3",
      "meta": {
        "profile": [ "http://hl7.org/fhir/us/core/StructureDefinition/us-core-patient" ]
      },
      "extension": [ {
        "url": "http://hl7.org/fhir/us/core/StructureDefinition/us-core-race",
        "extension": [ {
          "url": "ombCategory",
          "valueCoding": {
            "system": "urn:oid:2.16.840.1.113883.6.238",
            "code": "2106-3",
            "display": "White"
          }
        } ]
      }, {
        "url": "http://hl7.org/fhir/us/core/StructureDefinition/us-core-ethnicity",
        "extension": [ {
          "url": "ombCategory",
          "valueCoding": {
            "system": "urn:oid:2.16.840.1.113883.6.238",
            "code": "2186-5",
            "display": "Not Hispanic or Latino"
          }
        } ]
      } ],
      "identifier": [ {
        "use": "usual",
        "type": {
          "coding": [ {
            "system": "http://terminology.hl7.org/CodeSystem/v2-0203",
            "code": "MR",
            "display": "Medical Record Number"
          } ]
        },
        "system": "http://hospital.smarthealthit.org",
        "value": "9999999911"
      } ],
      "name": [ {
        "family": "Jones",
        "given": [ "Louise" ]
      } ],
      "gender": "female",
      "birthDate": "1971-11-21"
    },
    "request": {
      "method": "PUT",
      "url": "Patient/denomex-EXM105-FHIR3"
    }
  }, {
    "resource": {
      "resourceType": "Library",
      "id": "library-EXM105-FHIR3-8.0.000",
      "text": {
        "status": "generated",
        "div": "<div xmlns=\"http://www.w3.org/1999/xhtml\"><table class=\"grid dict\"><tr><th scope=\"row\"><b>Id: </b></th><td style=\"padding-left: 25px; padding-right: 25px;\">library-EXM105-FHIR3-8.0.000</td></tr><tr><th scope=\"row\"><b>Type: </b></th><td style=\"padding-right: 25px;\"> Logic Library </td></tr><tr><th scope=\"row\"><b>Version: </b></th><td style=\"padding-left: 25px; padding-right: 25px;\">8.0.000</td></tr><tr><th scope=\"row\"><b>Status: </b></th><td style=\"padding-left: 25px; padding-right: 25px;\">active</td></tr><tr style=\"vertical-align: top;\"><th rowspan=\"4\" scope=\"row\"><b>Related: </b></th><td style=\"padding-left: 25px; padding-right: 25px;\"><p style=\"margin-bottom: 5px;\"><b>type: </b><span>depends-on</span></p><p style=\"margin-bottom: 5px;\"><b>Resource: </b><br/><span><span style=\"padding-left: 25px;\"><b>reference: </b><span>Library/library-FHIRHelpers-3.0.0</span></span></span></p></td></tr><tr style=\"vertical-align: top;\"><td style=\"padding-left: 25px; padding-right: 25px;\"><p style=\"margin-bottom: 5px;\"><b>type: </b><span>depends-on</span></p><p style=\"margin-bottom: 5px;\"><b>Resource: </b><br/><span><span style=\"padding-left: 25px;\"><b>reference: </b><span>Library/library-MATGlobalCommonFunctions-FHIR3-4.0.000</span></span></span></p></td></tr><tr style=\"vertical-align: top;\"><td style=\"padding-left: 25px; padding-right: 25px;\"><p style=\"margin-bottom: 5px;\"><b>type: </b><span>depends-on</span></p><p style=\"margin-bottom: 5px;\"><b>Resource: </b><br/><span><span style=\"padding-left: 25px;\"><b>reference: </b><span>Library/library-SupplementalDataElements-FHIR3-1.0.0</span></span></span></p></td></tr><tr style=\"vertical-align: top;\"><td style=\"padding-left: 25px; padding-right: 25px;\"><p style=\"margin-bottom: 5px;\"><b>type: </b><span>depends-on</span></p><p style=\"margin-bottom: 5px;\"><b>Resource: </b><br/><span><span style=\"padding-left: 25px;\"><b>reference: </b><span>Library/library-TJCOverall-FHIR3-3.6.000</span></span></span></p></td></tr><tr style=\"vertical-align: top;\"><th rowspan=\"8\" scope=\"row\"><b>Data Requirements: </b></th><td style=\"padding-left: 25px; padding-right: 25px;\"><div><p style=\"margin-bottom: 5px;\"><b>type: </b><span>Encounter</span></p><p style=\"margin-bottom: 5px;\"><b>code filter:</b><br/><span style=\"padding-left: 25px;\"><b>path: </b><span>type</span></span><br/><span style=\"padding-left: 25px;\"><b>valueset: </b><span>http://cts.nlm.nih.gov/fhir/ValueSet/2.16.840.1.113883.3.117.1.7.1.424</span></span></p></div></td></tr><tr style=\"vertical-align: top;\"><td style=\"padding-left: 25px; padding-right: 25px;\"><div><p style=\"margin-bottom: 5px;\"><b>type: </b><span>Patient</span></p></div></td></tr><tr style=\"vertical-align: top;\"><td style=\"padding-left: 25px; padding-right: 25px;\"><div><p style=\"margin-bottom: 5px;\"><b>type: </b><span>AllergyIntolerance</span></p><p style=\"margin-bottom: 5px;\"><b>code filter:</b><br/><span style=\"padding-left: 25px;\"><b>path: </b><span>code</span></span><br/><span style=\"padding-left: 25px;\"><b>valueset: </b><span>http://cts.nlm.nih.gov/fhir/ValueSet/2.16.840.1.113883.3.117.1.7.1.423</span></span></p></div></td></tr><tr style=\"vertical-align: top;\"><td style=\"padding-left: 25px; padding-right: 25px;\"><div><p style=\"margin-bottom: 5px;\"><b>type: </b><span>MedicationRequest</span></p></div></td></tr><tr style=\"vertical-align: top;\"><td style=\"padding-left: 25px; padding-right: 25px;\"><div><p style=\"margin-bottom: 5px;\"><b>type: </b><span>MedicationRequest</span></p></div></td></tr><tr style=\"vertical-align: top;\"><td style=\"padding-left: 25px; padding-right: 25px;\"><div><p style=\"margin-bottom: 5px;\"><b>type: </b><span>Observation</span></p><p style=\"margin-bottom: 5px;\"><b>code filter:</b><br/><span style=\"padding-left: 25px;\"><b>path: </b><span>code</span></span><br/><span style=\"padding-left: 25px;\"><b>valueset: </b><span>http://cts.nlm.nih.gov/fhir/ValueSet/2.16.840.1.113883.3.117.1.7.1.215</span></span></p></div></td></tr><tr style=\"vertical-align: top;\"><td style=\"padding-left: 25px; padding-right: 25px;\"><div><p style=\"margin-bottom: 5px;\"><b>type: </b><span>ProcedureRequest</span></p><p style=\"margin-bottom: 5px;\"><b>code filter:</b><br/><span style=\"padding-left: 25px;\"><b>path: </b><span>code</span></span><br/><span style=\"padding-left: 25px;\"><b>valueset: </b><span>http://cts.nlm.nih.gov/fhir/ValueSet/1.3.6.1.4.1.33895.1.3.0.45</span></span></p></div></td></tr><tr style=\"vertical-align: top;\"><td style=\"padding-left: 25px; padding-right: 25px;\"><div><p style=\"margin-bottom: 5px;\"><b>type: </b><span>Procedure</span></p><p style=\"margin-bottom: 5px;\"><b>code filter:</b><br/><span style=\"padding-left: 25px;\"><b>path: </b><span>code</span></span><br/><span style=\"padding-left: 25px;\"><b>valueset: </b><span>http://cts.nlm.nih.gov/fhir/ValueSet/1.3.6.1.4.1.33895.1.3.0.45</span></span></p></div></td></tr><tr style=\"vertical-align: top;\"><th scope=\"row\"><b>Content: </b></th><td style=\"padding-left: 25px; padding-right: 25px;\"><b>type: </b><span>text/cql</span></td></tr><tr><td colspan=\"2\" style=\"padding-left: 25px; padding-right: 25px;\"><pre><code class=\"language-cql\">library EXM105_FHIR3 version '8.0.000'\n\n/*\nBased on CMS105v8 - Discharged on Statin Medication\nAuthor: TJC\n*/\n\nusing FHIR version '3.0.0'\n\ninclude FHIRHelpers version '3.0.0'\ninclude MATGlobalCommonFunctions_FHIR3 version '4.0.000' called Global\ninclude SupplementalDataElements_FHIR3 version '1.0.0' called SDE\ninclude TJCOverall_FHIR3 version '3.6.000' called TJC\n\ncodesystem &quot;LOINC&quot;: 'http://loinc.org'\ncodesystem &quot;SNOMEDCT&quot;: 'http://snomed.info/sct/731000124108'\ncodesystem &quot;Diagnosis Role&quot;: 'http://hl7.org/fhir/diagnosis-role'\ncodesystem &quot;RequestIntent&quot;: 'http://hl7.org/fhir/request-intent'\n\nvalueset &quot;Comfort Measures&quot;: 'http://cts.nlm.nih.gov/fhir/ValueSet/1.3.6.1.4.1.33895.1.3.0.45'\nvalueset &quot;Discharged to Health Care Facility for Hospice Care&quot;: 'http://cts.nlm.nih.gov/fhir/ValueSet/2.16.840.1.113883.3.117.1.7.1.207'\nvalueset &quot;Discharge To Acute Care Facility&quot;: 'http://cts.nlm.nih.gov/fhir/ValueSet/2.16.840.1.113883.3.117.1.7.1.87'\nvalueset &quot;Discharged to Home for Hospice Care&quot;: 'http://cts.nlm.nih.gov/fhir/ValueSet/2.16.840.1.113883.3.117.1.7.1.209'\nvalueset &quot;Emergency Department Visit&quot;: 'http://cts.nlm.nih.gov/fhir/ValueSet/2.16.840.1.113883.3.117.1.7.1.292'\nvalueset &quot;Ethnicity&quot;: 'http://cts.nlm.nih.gov/fhir/ValueSet/2.16.840.1.114222.4.11.837'\nvalueset &quot;Ischemic Stroke&quot;: 'http://cts.nlm.nih.gov/fhir/ValueSet/2.16.840.1.113883.3.117.1.7.1.247'\nvalueset &quot;Hemorrhagic Stroke&quot;: 'http://cts.nlm.nih.gov/fhir/ValueSet/2.16.840.1.113883.3.117.1.7.1.212'\nvalueset &quot;LDL-c&quot;: 'http://cts.nlm.nih.gov/fhir/ValueSet/2.16.840.1.113883.3.117.1.7.1.215'\nvalueset &quot;Left Against Medical Advice&quot;: 'http://cts.nlm.nih.gov/fhir/ValueSet/2.16.840.1.113883.3.117.1.7.1.308'\nvalueset &quot;Medical Reason&quot;: 'http://cts.nlm.nih.gov/fhir/ValueSet/2.16.840.1.113883.3.117.1.7.1.473'\nvalueset &quot;Non-Elective Inpatient Encounter&quot;: 'http://cts.nlm.nih.gov/fhir/ValueSet/2.16.840.1.113883.3.117.1.7.1.424'\nvalueset &quot;Observation Services&quot;: 'http://cts.nlm.nih.gov/fhir/ValueSet/2.16.840.1.113762.1.4.1111.143'\nvalueset &quot;ONC Administrative Sex&quot;: 'http://cts.nlm.nih.gov/fhir/ValueSet/2.16.840.1.113762.1.4.1'\nvalueset &quot;Patient Expired&quot;: 'http://cts.nlm.nih.gov/fhir/ValueSet/2.16.840.1.113883.3.117.1.7.1.309'\nvalueset &quot;Patient Refusal&quot;: 'http://cts.nlm.nih.gov/fhir/ValueSet/2.16.840.1.113883.3.117.1.7.1.93'\nvalueset &quot;Payer&quot;: 'http://cts.nlm.nih.gov/fhir/ValueSet/2.16.840.1.114222.4.11.3591'\nvalueset &quot;Race&quot;: 'http://cts.nlm.nih.gov/fhir/ValueSet/2.16.840.1.114222.4.11.836'\nvalueset &quot;Statin Allergen&quot;: 'http://cts.nlm.nih.gov/fhir/ValueSet/2.16.840.1.113883.3.117.1.7.1.423'\nvalueset &quot;Statin Grouper&quot;: 'http://cts.nlm.nih.gov/fhir/ValueSet/2.16.840.1.113762.1.4.1110.19'\n\n// TODO: Use NLM VSAC Canonical URLs\ncode &quot;Birthdate&quot;: '21112-8' from &quot;LOINC&quot; display 'Birth date'\ncode &quot;Dead&quot;: '419099009' from &quot;SNOMEDCT&quot; display 'Dead'\n//code &quot;Medication-dischargeMedication&quot;: '8654-6' from &quot;LOINC&quot; display 'Hospital Discharge medications'\n\ncode &quot;Billing&quot;: 'billing' from &quot;Diagnosis Role&quot; display 'Billing'\ncode &quot;Order&quot;: 'order' from &quot;RequestIntent&quot; display 'Order'\n\nparameter &quot;Measurement Period&quot; Interval&lt;DateTime&gt;\n  default Interval[@2019-01-01T00:00:00.0, @2020-01-01T00:00:00.0)\n\ncontext Patient\n\ndefine &quot;SDE Ethnicity&quot;:\n  SDE.&quot;SDE Ethnicity&quot;\n\ndefine &quot;SDE Payer&quot;:\n\tSDE.&quot;SDE Payer&quot;\n\ndefine &quot;SDE Race&quot;:\n  SDE.&quot;SDE Race&quot;\n\ndefine &quot;SDE Sex&quot;:\n\tSDE.&quot;SDE Sex&quot;\n\ndefine &quot;Initial Population&quot;:\n\t&quot;Encounter with Principal Diagnosis and Age&quot;\n\ndefine &quot;Encounter with Principal Diagnosis and Age&quot;:\n\t&quot;All Stroke Encounter&quot; AllStrokeEncounter\n\t\twith [&quot;Patient&quot;] BirthDate\n\t\t\tsuch that AgeInYearsAt(AllStrokeEncounter.period.start) &gt;= 18\n\ndefine &quot;All Stroke Encounter&quot;:\n\t&quot;Non Elective Inpatient Encounter&quot; NonElectiveEncounter\n\t\twhere Global.PrincipalDiagnosis(NonElectiveEncounter).code in &quot;Hemorrhagic Stroke&quot;\n\t\tor Global.PrincipalDiagnosis(NonElectiveEncounter).code in &quot;Ischemic Stroke&quot;\n\ndefine &quot;Non Elective Inpatient Encounter&quot;:\n\t[&quot;Encounter&quot;: &quot;Non-Elective Inpatient Encounter&quot;] NonElectiveEncounter\n\t\twhere Global.&quot;LengthInDays&quot;(NonElectiveEncounter.period)&lt;= 120\n\t\t\tand NonElectiveEncounter.period ends during &quot;Measurement Period&quot;\n\ndefine &quot;Denominator&quot;:\n\tTJC.&quot;Ischemic Stroke Encounter&quot;\n\ndefine &quot;Statin Allergy&quot;:\n\t[&quot;AllergyIntolerance&quot;: &quot;Statin Allergen&quot;]\n\ndefine &quot;Numerator&quot;:\n\t&quot;Ischemic Stroke Encounter&quot; IschemicStrokeEncounter\n\t\twith &quot;Statin at Discharge&quot; DischargeStatin\n\t\t\tsuch that DischargeStatin.authoredOn during IschemicStrokeEncounter.period\n\ndefine &quot;Ischemic Stroke Encounter&quot;:\n\t&quot;Encounter with Principal Diagnosis and Age&quot; EncounterWithAge\n\t\twhere Global.PrincipalDiagnosis(EncounterWithAge).code in &quot;Ischemic Stroke&quot;\n\n// Medication orders at discharge, how do we know that these are ordered with the intent to be taken discharge rather than the inpatient stay.\ndefine &quot;Statin at Discharge&quot;:\n\t[&quot;MedicationRequest&quot;] Statin\n\t\twhere (Statin.medication as CodeableConcept) in &quot;Statin Grouper&quot;\n\t\t\tand Statin.intent = 'order'\n\ndefine &quot;Statin Not Given at Discharge&quot;:\n\t[&quot;MedicationRequest&quot;] NoStatin\n\t\twhere (NoStatin.medication as CodeableConcept) in &quot;Statin Grouper&quot;\n\t\t\tand (singleton from NoStatin.reasonCode in &quot;Medical Reason&quot;\n\t\t\t\tor singleton from NoStatin.reasonCode in &quot;Patient Refusal&quot;)\n\n//Folling function copied from MATGlobalCommonFunctions 2.0 in cqf-measures github repo\ndefine function &quot;Normalize Onset&quot;(onset Choice&lt;FHIR.dateTime, FHIR.Age, FHIR.Period, FHIR.Range, FHIR.string&gt;):\n\tif onset is FHIR.dateTime then Interval[onset.value, onset.value]\n\telse if onset is FHIR.Period then FHIRHelpers.ToInterval(onset as FHIR.Period)\n\telse null\n\ndefine &quot;Encounter with Max LDL less than 70 mg per dL&quot;:\n\t&quot;Ischemic Stroke Encounter&quot; IschemicStrokeEncounter\n\t\twhere Max([&quot;Observation&quot;: &quot;LDL-c&quot;] Ldl\n\t\t\t\twhere Ldl.issued during Interval[IschemicStrokeEncounter.period.start - 30 days,IschemicStrokeEncounter.period.end]\n\t\t\t\treturn (Ldl.value as Quantity)\n\t\t) &lt; 70\n\ndefine &quot;Denominator Exception&quot;:\n\t(&quot;Ischemic Stroke Encounter&quot; IschemicStrokeEncounter\n\t\twith &quot;Statin Not Given at Discharge&quot; NoDischargeStatin\n\t\t\tsuch that NoDischargeStatin.authoredOn during IschemicStrokeEncounter.period\n\t)\n\tunion\n\t(&quot;Ischemic Stroke Encounter&quot; IschemicStrokeEncounter\n\t\twith &quot;Statin Allergy&quot; StatinAllergy\n\t\t\tsuch that &quot;Normalize Onset&quot;(StatinAllergy.onset) on or before end of IschemicStrokeEncounter.period)\n\ndefine &quot;Denominator Exclusion&quot;:\n\t&quot;Ischemic Stroke Encounters with Discharge Status&quot;\n\tunion\n\t&quot;Comfort Measures during Hospitalization&quot;\n\ndefine &quot;Ischemic Stroke Encounters with Discharge Status&quot;:\n\t(&quot;Ischemic Stroke Encounter&quot; IschemicStrokeEncounter\n\t\twhere IschemicStrokeEncounter.hospitalization.dischargeDisposition in &quot;Discharge To Acute Care Facility&quot;\n\t\t\tor IschemicStrokeEncounter.hospitalization.dischargeDisposition in &quot;Left Against Medical Advice&quot;\n\t\t\tor IschemicStrokeEncounter.hospitalization.dischargeDisposition in &quot;Patient Expired&quot;\n\t\t\tor IschemicStrokeEncounter.hospitalization.dischargeDisposition in &quot;Discharged to Home for Hospice Care&quot;\n\t\t\tor IschemicStrokeEncounter.hospitalization.dischargeDisposition in &quot;Discharged to Health Care Facility for Hospice Care&quot;\n\t)\n\ndefine &quot;Comfort Measures during Hospitalization&quot;:\n\t&quot;Ischemic Stroke Encounter&quot; IschemicStrokeEncounter\n\t\twith &quot;Intervention Comfort Measures&quot; ComfortMeasure\n\t\t\tsuch that ComfortMeasure.authoredOn during Global.&quot;Hospitalization&quot;(IschemicStrokeEncounter)\n\n/*\ndefine &quot;Intervention Comfort Measures&quot;:\n\t([&quot;ProcedureRequest&quot;: &quot;Comfort Measures&quot;] P\n\t\twhere P.intent = 'order')\n\t\tunion [&quot;Procedure&quot;: &quot;Comfort Measures&quot;]\n*/\n\ndefine &quot;Intervention Comfort Measures&quot;:\n\t([&quot;ProcedureRequest&quot;: &quot;Comfort Measures&quot;] P\n\t\twhere P.intent in {'plan', 'order'})\n\t\tunion\n\t\t([&quot;Procedure&quot;: &quot;Comfort Measures&quot;] IntervetionPerformed\n\t\twhere IntervetionPerformed.status in {'complete', 'in progress'})\n</code></pre>\n                    \n                    \n                </td>\n            </tr>\n        \n    </table>\n</div>"
      },
      "extension": [ {
        "url": "http://hl7.org/fhir/us/cqfmeasures/StructureDefinition/cqfm-softwaresystem",
        "valueReference": {
          "reference": "cqf-tooling"
        }
      } ],
      "version": "8.0.000",
      "name": "EXM105_FHIR3",
      "status": "active",
      "experimental": true,
      "type": {
        "coding": [ {
          "system": "http://hl7.org/fhir/codesystem-library-type.html",
          "code": "logic-library"
        } ]
      },
      "content": [ {
        "contentType": "text/cql",
        "data": ""
      } ]
    },
    "request": {
      "method": "PUT",
      "url": "Library/library-EXM105-FHIR3-8.0.000"
    }
  }, {
    "resource": {
      "resourceType": "Condition",
      "id": "numer-EXM105-FHIR3-1",
      "meta": {
        "profile": [ "http://hl7.org/fhir/us/core/StructureDefinition/us-core-condition" ]
      },
      "verificationStatus": "confirmed",
      "category": [ {
        "coding": [ {
          "system": "http://terminology.hl7.org/CodeSystem/condition-category",
          "code": "encounter-diagnosis",
          "display": "Encounter Diagnosis"
        } ]
      } ],
      "code": {
        "coding": [ {
          "system": "http://snomed.info/sct",
          "code": "116288000",
          "display": "Paralytic stroke (disorder)"
        } ]
      },
      "subject": {
        "reference": "Patient/numer-EXM105-FHIR3"
      }
    },
    "request": {
      "method": "PUT",
      "url": "Condition/numer-EXM105-FHIR3-1"
    }
  }, {
    "resource": {
      "resourceType": "Encounter",
      "id": "numer-EXM105-FHIR3-2",
      "meta": {
        "profile": [ "http://hl7.org/fhir/us/core/StructureDefinition/us-core-encounter" ]
      },
      "status": "finished",
      "class": {
        "system": "http://terminology.hl7.org/CodeSystem/v3-ActCode",
        "code": "IMP",
        "display": "inpatient encounter"
      },
      "type": [ {
        "coding": [ {
          "system": "http://snomed.info/sct",
          "code": "32485007",
          "display": "Hospital admission (procedure)"
        } ]
      } ],
      "subject": {
        "reference": "Patient/numer-EXM105-FHIR3"
      },
      "period": {
        "start": "2019-08-21T00:00:00-06:00",
        "end": "2019-12-19T08:15:00-07:00"
      },
      "diagnosis": [ {
        "condition": {
          "reference": "Condition/numer-EXM105-FHIR3-1"
        },
        "role": {
          "coding": [ {
            "system": "http://hl7.org/fhir/diagnosis-role",
            "code": "billing",
            "display": "Billing"
          } ]
        },
        "rank": 1
      } ]
    },
    "request": {
      "method": "PUT",
      "url": "Encounter/numer-EXM105-FHIR3-2"
    }
  }, {
    "resource": {
      "resourceType": "Measure",
      "id": "measure-EXM105-FHIR3-8.0.000",
      "meta": {
        "versionId": "5",
        "lastUpdated": "2019-12-04T17:52:12.092-07:00",
        "profile": [ "http://hl7.org/fhir/us/cqfmeasures/StructureDefinition/proportion-measure-cqfm" ]
      },
      "text": {
        "status": "generated",
        "div": "<div xmlns=\"http://www.w3.org/1999/xhtml\"><table class=\"header_table\">\r\n                    <tbody>\r\n                    <tr>\r\n                    <td style=\"background-color:#656565; width:20%\"><span class=\"td_label\">eCQM Title</span></td>\r\n                    <td colspan=\"3\" style=\"width:80%\"><h1 style=\"font-size:10px\">Discharged on Statin Medication</h1></td>\r\n                    </tr>\r\n                    <tr>\r\n                    <td style=\"background-color:#656565; width:20%\"><span class=\"td_label\">eCQM Identifier (Measure Authoring Tool)</span></td>\r\n                    <td style=\"width:30%\">105</td>\r\n                    <td style=\"background-color:#656565; width:20%\"><span class=\"td_label\">eCQM Version number</span></td>\r\n                    <td style=\"width:30%\">8.1.000</td>\r\n                    </tr>\r\n                    <tr>\r\n                    <td style=\"background-color:#656565; width:20%\"><span class=\"td_label\">NQF Number</span></td>\r\n                    <td style=\"width:30%\">Not Applicable</td>\r\n                    <td style=\"background-color:#656565; width:20%\"><span class=\"td_label\">GUID</span></td>\r\n                    <td>1f503318-bb8d-4b91-af63-223ae0a2328e</td>\r\n                    </tr>\r\n                    <tr>\r\n                    <td style=\"background-color:#656565; width:20%\"><span class=\"td_label\">Measurement Period</span></td>\r\n                    <td colspan=\"3\" style=\"width:80%\">January 1, 20XX through December 31, 20XX</td>\r\n                    </tr>\r\n                    <tr>\r\n                    <td style=\"background-color:#656565; width:20%\"><span class=\"td_label\">Measure Steward</span></td>\r\n                    <td colspan=\"3\" style=\"width:80%\">The Joint Commission</td>\r\n                    </tr>\r\n                    <tr>\r\n                    <td style=\"background-color:#656565; width:20%\"><span class=\"td_label\">Measure Developer</span></td>\r\n                    <td colspan=\"3\" style=\"width:80%\">The Joint Commission</td>\r\n                    </tr>\r\n                    <tr>\r\n                    <td style=\"background-color:#656565; width:20%\"><span class=\"td_label\">Endorsed By</span></td>\r\n                    <td colspan=\"3\" style=\"width:80%\">None</td>\r\n                    </tr>\r\n                    <tr>\r\n                    <td style=\"background-color:#656565; width:20%\"><span class=\"td_label\">Description</span></td>\r\n                    <td colspan=\"3\" style=\"width:80%\">\r\n                    <div style=\"width:660px;overflow-x:hidden;overflow-y:auto\">\r\n                        <pre>Ischemic stroke patients who are prescribed or continuing to take statin medication at hospital discharge</pre>\r\n                    </div></td>\r\n                    </tr>\r\n                    <tr>\r\n                    <td style=\"background-color:#656565; width:20%\"><span class=\"td_label\">Copyright</span></td>\r\n                    <td colspan=\"3\" style=\"width:80%\">\r\n                    <div style=\"width:660px;overflow-x:hidden;overflow-y:auto\">\r\n                        <pre>LOINC(R) copyright 2004-2018 Regenstrief Institute, Inc. \r\n                This material contains SNOMED Clinical Terms(R) (SNOMED CT[R]) copyright 2004-2018 International Health Terminology Standards Development Organisation. All Rights Reserved.\r\n                \r\n                Measure specifications are in the Public Domain.</pre>\r\n                    </div></td>\r\n                    </tr>\r\n                    <tr>\r\n                    <td style=\"background-color:#656565; width:20%\"><span class=\"td_label\">Disclaimer</span></td>\r\n                    <td colspan=\"3\" style=\"width:80%\">\r\n                    <div style=\"width:660px;overflow-x:hidden;overflow-y:auto\">\r\n                        <pre>These performance measures are not clinical guidelines and do not establish a standard of medical care, and have not been tested for all potential applications. The measures and specifications are provided without warranty.</pre>\r\n                    </div></td>\r\n                    </tr>\r\n                    <tr>\r\n                    <td style=\"background-color:#656565; width:20%\"><span class=\"td_label\">Measure Scoring</span></td>\r\n                    <td colspan=\"3\" style=\"width:80%\">Proportion</td>\r\n                    </tr>\r\n                    <tr>\r\n                    <td style=\"background-color:#656565; width:20%\"><span class=\"td_label\">Measure Type</span></td>\r\n                    <td colspan=\"3\" style=\"width:80%\">Process</td>\r\n                    </tr>\r\n                    <tr>\r\n                    <td style=\"background-color:#656565; width:20%\"><span class=\"td_label\">Stratification</span></td>\r\n                    <td colspan=\"3\" style=\"width:80%\">\r\n                    <div style=\"width:660px;overflow-x:hidden;overflow-y:auto\">\r\n                        <pre>None</pre>\r\n                    </div></td>\r\n                    </tr>\r\n                    <tr>\r\n                    <td style=\"background-color:#656565; width:20%\"><span class=\"td_label\">Risk Adjustment</span></td>\r\n                    <td colspan=\"3\" style=\"width:80%\">\r\n                    <div style=\"width:660px;overflow-x:hidden;overflow-y:auto\">\r\n                        <pre>None</pre>\r\n                    </div></td>\r\n                    </tr>\r\n                    <tr>\r\n                    <td style=\"background-color:#656565; width:20%\"><span class=\"td_label\">Rate Aggregation</span></td>\r\n                    <td colspan=\"3\" style=\"width:80%\">\r\n                    <div style=\"width:660px;overflow-x:hidden;overflow-y:auto\">\r\n                        <pre>None</pre>\r\n                    </div></td>\r\n                    </tr>\r\n                    <tr>\r\n                    <td style=\"background-color:#656565; width:20%\"><span class=\"td_label\">Rationale</span></td>\r\n                    <td colspan=\"3\" style=\"width:80%\">\r\n                    <div style=\"width:660px;overflow-x:hidden;overflow-y:auto\">\r\n                        <pre>There is an extensive and consistent body of evidence supporting the use of statins for secondary prevention in patients with clinically evident atherosclerotic cardiovascular disease (ASCVD), which includes individuals with ischemic stroke due to large artery atherosclerosis, individuals with ischemic stroke due to intrinsic small vessel disease, and individuals with ischemic stroke not directly due to atherosclerosis but with clinically evident atherosclerotic disease in an uninvolved cerebral or noncerebral bed.  Both women and men with clinical ASCVD are at increased risk for recurrent ASCVD and ASCVD death.  High-intensity statin therapy should be initiated or continued as first-line therapy in women and men less than or equal to 75 years of age who have clinical ASCVD, unless contraindicated. In patients with clinical ASCVD and a contraindication to high-intensity statin therapy, moderate-intensity therapy should be considered as an alternative if it can be tolerated.  In individuals greater than 75 years of age, the potential for ASCVD risk reduction benefits, adverse effects, drug-drug interactions, and patient preferences should be considered, and statin therapy individualized based on these considerations (Stone, 2013).</pre>\r\n                    </div></td>\r\n                    </tr>\r\n                    <tr>\r\n                    <td style=\"background-color:#656565; width:20%\"><span class=\"td_label\">Clinical Recommendation Statement</span></td>\r\n                    <td colspan=\"3\" style=\"width:80%\">\r\n                    <div style=\"width:660px;overflow-x:hidden;overflow-y:auto\">\r\n                        <pre>For patients with stroke of atherosclerotic origin, intensive lipid lowering therapy with statins should be initiated</pre>\r\n                    </div></td>\r\n                    </tr>\r\n                    <tr>\r\n                    <td style=\"background-color:#656565; width:20%\"><span class=\"td_label\">Improvement Notation</span></td>\r\n                    <td colspan=\"3\" style=\"width:80%\">\r\n                    <div style=\"width:660px;overflow-x:hidden;overflow-y:auto\">\r\n                        <pre>Improvement noted as an increase in rate</pre>\r\n                    </div></td>\r\n                    </tr>\r\n                    <tr>\r\n                    <td style=\"background-color:#656565; width:20%\"><span class=\"td_label\">Reference</span></td>\r\n                    <td colspan=\"3\" style=\"width:80%\">\r\n                    <div style=\"width:660px;overflow-x:hidden;overflow-y:auto\">\r\n                        <pre>Amarenco, P., Bogousslavsky, J., Callahan, A., III, et al. (2006, August 10). High-dose atorvastatin after stroke or transient ischemic attack. New England Journal of Medicine, 355(6), 549-559. </pre>\r\n                    </div></td>\r\n                    </tr>\r\n                    <tr>\r\n                    <td style=\"background-color:#656565; width:20%\"><span class=\"td_label\">Reference</span></td>\r\n                    <td colspan=\"3\" style=\"width:80%\">\r\n                    <div style=\"width:660px;overflow-x:hidden;overflow-y:auto\">\r\n                        <pre>Biffi, A., Devan, W. J., Anderson, C. D., et al. (2011, May). Statin treatment and functional outcome after ischemic stroke: Case-control and meta-analysis. Stroke, 42(5), 1314-1319. </pre>\r\n                    </div></td>\r\n                    </tr>\r\n                    <tr>\r\n                    <td style=\"background-color:#656565; width:20%\"><span class=\"td_label\">Reference</span></td>\r\n                    <td colspan=\"3\" style=\"width:80%\">\r\n                    <div style=\"width:660px;overflow-x:hidden;overflow-y:auto\">\r\n                        <pre>Centers for Disease Control and Prevention. (2009, May 1). Prevalence and most common causes of disability among adultsUnited States, 2005. Morbidity and Mortality Weekly Report, 58(16), 421-426. </pre>\r\n                    </div></td>\r\n                    </tr>\r\n                    <tr>\r\n                    <td style=\"background-color:#656565; width:20%\"><span class=\"td_label\">Reference</span></td>\r\n                    <td colspan=\"3\" style=\"width:80%\">\r\n                    <div style=\"width:660px;overflow-x:hidden;overflow-y:auto\">\r\n                        <pre>Chan, P. S., Nallamothu, B. K., Gurm, H. S., et al. (2007, May 8). Incremental benefit and cost-effectiveness of high-dose statin therapy in high-risk patients with coronary artery disease. Circulation, 115(18), 2398-2409. </pre>\r\n                    </div></td>\r\n                    </tr>\r\n                    <tr>\r\n                    <td style=\"background-color:#656565; width:20%\"><span class=\"td_label\">Reference</span></td>\r\n                    <td colspan=\"3\" style=\"width:80%\">\r\n                    <div style=\"width:660px;overflow-x:hidden;overflow-y:auto\">\r\n                        <pre>Culver, A. L., Ockene, I. S., Balasubramanian, R., et al. (2012, January 23). Statin use and risk of diabetes mellitus in postmenopausal women in the Women's Health Initiative. Archives of Internal Medicine, 172(2),  144-152. </pre>\r\n                    </div></td>\r\n                    </tr>\r\n                    <tr>\r\n                    <td style=\"background-color:#656565; width:20%\"><span class=\"td_label\">Reference</span></td>\r\n                    <td colspan=\"3\" style=\"width:80%\">\r\n                    <div style=\"width:660px;overflow-x:hidden;overflow-y:auto\">\r\n                        <pre>Feher, A., Pusch, G., Koltai, K., et al. (2011, April 14). Statin therapy in the primary and the secondary prevention of ischaemic cerebrovascular diseases. International Journal of Cardiology, 148(2), 131-138. </pre>\r\n                    </div></td>\r\n                    </tr>\r\n                    <tr>\r\n                    <td style=\"background-color:#656565; width:20%\"><span class=\"td_label\">Reference</span></td>\r\n                    <td colspan=\"3\" style=\"width:80%\">\r\n                    <div style=\"width:660px;overflow-x:hidden;overflow-y:auto\">\r\n                        <pre>Grundy, S. M., Cleeman, J. I., Merz, C. N., et al. (2004, July 13). Implications of recent clinical trials for the National Cholesterol Education Program Adult Treatment Panel III Guidelines. Circulation, 110(2), 227-239. </pre>\r\n                    </div></td>\r\n                    </tr>\r\n                    <tr>\r\n                    <td style=\"background-color:#656565; width:20%\"><span class=\"td_label\">Reference</span></td>\r\n                    <td colspan=\"3\" style=\"width:80%\">\r\n                    <div style=\"width:660px;overflow-x:hidden;overflow-y:auto\">\r\n                        <pre>Kernan, W. N., Ovbiagele, B., Black, H. R., et al. (2014, May). Guidelines for the prevention of stroke in patients with stroke and transient ischemic attack: A guideline for health care professionals from the American Heart Association/American Stroke Association. Stroke, 45(7), 2160-2223. </pre>\r\n                    </div></td>\r\n                    </tr>\r\n                    <tr>\r\n                    <td style=\"background-color:#656565; width:20%\"><span class=\"td_label\">Reference</span></td>\r\n                    <td colspan=\"3\" style=\"width:80%\">\r\n                    <div style=\"width:660px;overflow-x:hidden;overflow-y:auto\">\r\n                        <pre>Kostis, W. J., Cheng, J. Q., Dobrzynski, J. M., et al. (2012, February 7). Meta-analysis of statin effects in women versus men. Journal of the American College of Cardiology, 59(6), 572-582.</pre>\r\n                    </div></td>\r\n                    </tr>\r\n                    <tr>\r\n                    <td style=\"background-color:#656565; width:20%\"><span class=\"td_label\">Reference</span></td>\r\n                    <td colspan=\"3\" style=\"width:80%\">\r\n                    <div style=\"width:660px;overflow-x:hidden;overflow-y:auto\">\r\n                        <pre>Lazar, L. D., Pletcher, M. J., Coxson, P. G., et al. (2011, July 12). Cost-effectiveness of statin therapy for primary prevention in a low-cost statin era. Circulation, 124(2), 146-153.</pre>\r\n                    </div></td>\r\n                    </tr>\r\n                    <tr>\r\n                    <td style=\"background-color:#656565; width:20%\"><span class=\"td_label\">Reference</span></td>\r\n                    <td colspan=\"3\" style=\"width:80%\">\r\n                    <div style=\"width:660px;overflow-x:hidden;overflow-y:auto\">\r\n                        <pre>Mitka, M. (2012, March 7). Some question use of statins to reduce cardiovascular risks in healthy women. JAMA, 307(9), 893-894. </pre>\r\n                    </div></td>\r\n                    </tr>\r\n                    <tr>\r\n                    <td style=\"background-color:#656565; width:20%\"><span class=\"td_label\">Reference</span></td>\r\n                    <td colspan=\"3\" style=\"width:80%\">\r\n                    <div style=\"width:660px;overflow-x:hidden;overflow-y:auto\">\r\n                        <pre>National Cholesterol Education Program Expert Panel on Detection, Evaluation, and Adults Treatment of High Blood Cholesterol in Adults. (2002, December 17). Third report of the National Cholesterol Education Program (NCEP) Expert Panel on Detection, Evaluation, and Treatment of High Blood Cholesterol in Adults (Adult Treatment Panel III)Final report. Circulation, 106(25), 3143-3421. </pre>\r\n                    </div></td>\r\n                    </tr>\r\n                    <tr>\r\n                    <td style=\"background-color:#656565; width:20%\"><span class=\"td_label\">Reference</span></td>\r\n                    <td colspan=\"3\" style=\"width:80%\">\r\n                    <div style=\"width:660px;overflow-x:hidden;overflow-y:auto\">\r\n                        <pre>Powers, W. J., Rabinstein, A. A., Ackerson, T., et al. (2018, January). 2018 guidelines for the early management of patients with acute ischemic stroke: A guideline for health care professionals from the American Heart Association/American Stroke Association. Stroke, 49, e44-e47. </pre>\r\n                    </div></td>\r\n                    </tr>\r\n                    <tr>\r\n                    <td style=\"background-color:#656565; width:20%\"><span class=\"td_label\">Reference</span></td>\r\n                    <td colspan=\"3\" style=\"width:80%\">\r\n                    <div style=\"width:660px;overflow-x:hidden;overflow-y:auto\">\r\n                        <pre>Rodriguez-Yanez, M., Agulla, J., Rodriguez-Gonzalez, R., et al. (2008, June). Statins and stroke. Therapeutic Advances in Cardiovascular Disease, 2(3), 157-166. </pre>\r\n                    </div></td>\r\n                    </tr>\r\n                    <tr>\r\n                    <td style=\"background-color:#656565; width:20%\"><span class=\"td_label\">Reference</span></td>\r\n                    <td colspan=\"3\" style=\"width:80%\">\r\n                    <div style=\"width:660px;overflow-x:hidden;overflow-y:auto\">\r\n                        <pre>Roger, V. L., Go, A. S., Lloyd-Jones, D. M., et al. (2012, January 3). Heart disease and stroke statistics2012 update: A report from the American Heart Association. Circulation, 125(1), e2-e220. </pre>\r\n                    </div></td>\r\n                    </tr>\r\n                    <tr>\r\n                    <td style=\"background-color:#656565; width:20%\"><span class=\"td_label\">Reference</span></td>\r\n                    <td colspan=\"3\" style=\"width:80%\">\r\n                    <div style=\"width:660px;overflow-x:hidden;overflow-y:auto\">\r\n                        <pre>Schellinger, P. D., Bryan, R. N., Caplan, L. R., et al. (2010, July 13). Evidence-based guideline: The role of diffusion and perfusion MRI for the diagnosis of acute ischemic stroke: Report of the Therapeutics and Technology Assessment Subcommittee of the American Academy of Neurology.  Neurology, 75(2), 177-185.</pre>\r\n                    </div></td>\r\n                    </tr>\r\n                    <tr>\r\n                    <td style=\"background-color:#656565; width:20%\"><span class=\"td_label\">Reference</span></td>\r\n                    <td colspan=\"3\" style=\"width:80%\">\r\n                    <div style=\"width:660px;overflow-x:hidden;overflow-y:auto\">\r\n                        <pre>Squizzato, A., Romualdi, E., Dentali, F., et al. (2011). Statins for acute ischemic stroke. Cochrane Database of Systematic Reviews, 8, CD007551. </pre>\r\n                    </div></td>\r\n                    </tr>\r\n                    <tr>\r\n                    <td style=\"background-color:#656565; width:20%\"><span class=\"td_label\">Reference</span></td>\r\n                    <td colspan=\"3\" style=\"width:80%\">\r\n                    <div style=\"width:660px;overflow-x:hidden;overflow-y:auto\">\r\n                        <pre>Stone, N. J., Robinson, J., Lichtenstein, A. H., et al. (2013, November). Guideline on the treatment of blood cholesterol to reduce atherosclerotic cardiovascular disease in adults: A report of the American College of Cardiology/American Heart Association Task Force on Practice Guidelines. Circulation, 11, 1-84. </pre>\r\n                    </div></td>\r\n                    </tr>\r\n                    <tr>\r\n                    <td style=\"background-color:#656565; width:20%\"><span class=\"td_label\">Reference</span></td>\r\n                    <td colspan=\"3\" style=\"width:80%\">\r\n                    <div style=\"width:660px;overflow-x:hidden;overflow-y:auto\">\r\n                        <pre>Van Dis, F. J., Keilson, L. M., Rundell, C. A., et al. (1996, June). Direct measurement of serum low-density lipoprotein cholesterol in patients with acute myocardial infarction on admission to the emergency room. American Journal of Cardiology, 77(14), 1232-1234. </pre>\r\n                    </div></td>\r\n                    </tr>\r\n                    <tr>\r\n                    <td style=\"background-color:#656565; width:20%\"><span class=\"td_label\">Reference</span></td>\r\n                    <td colspan=\"3\" style=\"width:80%\">\r\n                    <div style=\"width:660px;overflow-x:hidden;overflow-y:auto\">\r\n                        <pre>Weiss, R., Harder, M., %26amp; Rowe, J. (2003, May). The relationship between nonfasting and fasting lipid measurements in patients with or without type 2 diabetes mellitus receiving treatment with 3-hydroxy-3-methylglutaryl-coenzyme a reductase inhibitors. Clinical Therapeutics, 25(5), 1490-1497. </pre>\r\n                    </div></td>\r\n                    </tr>\r\n                    <tr>\r\n                    <td style=\"background-color:#656565; width:20%\"><span class=\"td_label\">Definition</span></td>\r\n                    <td colspan=\"3\" style=\"width:80%\">\r\n                    <div style=\"width:660px;overflow-x:hidden;overflow-y:auto\">\r\n                        <pre>None</pre>\r\n                    </div></td>\r\n                    </tr>\r\n                    <tr>\r\n                    <td style=\"background-color:#656565; width:20%\"><span class=\"td_label\">Guidance</span></td>\r\n                    <td colspan=\"3\" style=\"width:80%\">\r\n                    <div style=\"width:660px;overflow-x:hidden;overflow-y:auto\">\r\n                        <pre>The &quot;Non-elective Inpatient Encounter&quot; value set intends to capture all non-scheduled hospitalizations. This value set is a subset of the &quot;Inpatient Encounter&quot; value set, excluding concepts that specifically refer to elective hospital admissions. Non-elective Inpatient Encounters include emergency, urgent, and unplanned admissions.\r\n                \r\n                The &quot;Medication, Discharge&quot; datatype refers to the discharge medication list and is intended to express medications ordered for post-discharge use.</pre>\r\n                    </div></td>\r\n                    </tr>\r\n                    <tr>\r\n                    <td style=\"background-color:#656565; width:20%\"><span class=\"td_label\">Transmission Format</span></td>\r\n                    <td colspan=\"3\" style=\"width:80%\">\r\n                    <div style=\"width:660px;overflow-x:hidden;overflow-y:auto\">\r\n                        <pre>TBD</pre>\r\n                    </div></td>\r\n                    </tr>\r\n                    <tr>\r\n                    <td style=\"background-color:#656565; width:20%\"><span class=\"td_label\">Initial Population</span></td>\r\n                    <td colspan=\"3\" style=\"width:80%\">\r\n                    <div style=\"width:660px;overflow-x:hidden;overflow-y:auto\">\r\n                        <pre>Inpatient hospitalizations for patients age 18 and older, discharged from inpatient care (non-elective admissions) with a principal diagnosis of ischemic or hemorrhagic stroke and a length of stay less than or equal to 120 days that ends during measurement period</pre>\r\n                    </div></td>\r\n                    </tr>\r\n                    <tr>\r\n                    <td style=\"background-color:#656565; width:20%\"><span class=\"td_label\">Denominator</span></td>\r\n                    <td colspan=\"3\" style=\"width:80%\">\r\n                    <div style=\"width:660px;overflow-x:hidden;overflow-y:auto\">\r\n                        <pre>Inpatient hospitalizations for patients with a principal diagnosis of ischemic stroke</pre>\r\n                    </div></td>\r\n                    </tr>\r\n                    <tr>\r\n                    <td style=\"background-color:#656565; width:20%\"><span class=\"td_label\">Denominator Exclusions</span></td>\r\n                    <td colspan=\"3\" style=\"width:80%\">\r\n                    <div style=\"width:660px;overflow-x:hidden;overflow-y:auto\">\r\n                        <pre>Inpatient hospitalizations for patients admitted for elective carotid intervention. This exclusion is implicitly modeled by only including non-elective hospitalizations.\r\n                Inpatient hospitalizations for patients discharged to another hospital\r\n                Inpatient hospitalizations for patients who left against medical advice\r\n                Inpatient hospitalizations for patients who expired\r\n                Inpatient hospitalizations for patients discharged to home for hospice care\r\n                Inpatient hospitalizations for patients discharged to a health care facility for hospice care\r\n                Inpatient hospitalizations for patients with comfort measures documented</pre>\r\n                    </div></td>\r\n                    </tr>\r\n                    <tr>\r\n                    <td style=\"background-color:#656565; width:20%\"><span class=\"td_label\">Numerator</span></td>\r\n                    <td colspan=\"3\" style=\"width:80%\">\r\n                    <div style=\"width:660px;overflow-x:hidden;overflow-y:auto\">\r\n                        <pre>Inpatient hospitalizations for patients prescribed or continuing to take statin medication at hospital discharge</pre>\r\n                    </div></td>\r\n                    </tr>\r\n                    <tr>\r\n                    <td style=\"background-color:#656565; width:20%\"><span class=\"td_label\">Numerator Exclusions</span></td>\r\n                    <td colspan=\"3\" style=\"width:80%\">\r\n                    <div style=\"width:660px;overflow-x:hidden;overflow-y:auto\">\r\n                        <pre>Not Applicable</pre>\r\n                    </div></td>\r\n                    </tr>\r\n                    <tr>\r\n                    <td style=\"background-color:#656565; width:20%\"><span class=\"td_label\">Denominator Exceptions</span></td>\r\n                    <td colspan=\"3\" style=\"width:80%\">\r\n                    <div style=\"width:660px;overflow-x:hidden;overflow-y:auto\">\r\n                        <pre>Inpatient hospitalizations for patients with a reason for not prescribing statin medication at discharge\r\n                Inpatient hospitalizations for patients with a maximum LDL-c result of  less than 70 mg/dL %26lt;= 30 days prior to arrival or any time during the hospital stay\r\n                Inpatient hospitalizations for patients with a statin allergy.</pre>\r\n                    </div></td>\r\n                    </tr>\r\n                    <tr>\r\n                    <td style=\"background-color:#656565; width:20%\"><span class=\"td_label\">Supplemental Data Elements</span></td>\r\n                    <td colspan=\"3\" style=\"width:80%\">\r\n                    <div style=\"width:660px;overflow-x:hidden;overflow-y:auto\">\r\n                        <pre>For every patient evaluated by this measure also identify payer, race, ethnicity and sex</pre>\r\n                    </div></td>\r\n                    </tr>\r\n                    </tbody>\r\n                </table>\r\n                <h2><a name=\"toc\">Table of Contents</a></h2>\r\n                <ul style=\"padding-left: 50px;\">\r\n                    <li><a href=\"#d1e405\">Population Criteria</a></li>\r\n                    <li><a href=\"#d1e649\">Definitions</a></li>\r\n                    <li><a href=\"#d1e650\">Functions</a></li>\r\n                    <li><a href=\"#d1e555\">Terminology</a></li>\r\n                    <li><a href=\"#d1e647\">Data Criteria (QDM Data Elements)</a></li>\r\n                    <li><a href=\"#d1e767\">Supplemental Data Elements</a></li>\r\n                    <li><a href=\"#d1e879\">Risk Adjustment Variables</a></li>\r\n                </ul>\r\n                <div style=\"float:left; background:teal; height:3px; width:80%\"/>\r\n                <h3><a name=\"d1e405\" href=\"#toc\">Population Criteria</a></h3>\r\n                <div>\r\n                    <ul style=\"list-style:none;padding-left:10px;\">\r\n                    <li style=\"list-style:none;padding-left:0px;\" class=\"list-unstyled\">\r\n                    <div class=\"treeview hover p-l-10\">\r\n                    <ul class=\"list-unstyled\">\r\n                        <li class=\"list-unstyled\"><input id=\"test-initialPopulation_235\" type=\"checkbox\"/><label for=\"test-initialPopulation_235\" class=\"list-header\"><strong>Initial Population</strong></label>\r\n                        <ul class=\"code\">\r\n                        <li class=\"list-unstyled\">\r\n                        <div class=\"treeview hover p-l-10\">\r\n                            <ul>\r\n                            <li style=\"padding-left: 0px;\">\r\n                            <div>\r\n                            <pre class=\"cql-definition-body\">TJC.&quot;Encounter with Principal Diagnosis and Age&quot;</pre>\r\n                            </div></li>\r\n                            </ul>%26nbsp;\r\n                        </div></li>\r\n                        </ul></li>\r\n                    </ul>\r\n                    </div></li>\r\n                    <li style=\"list-style:none;padding-left:0px;\" class=\"list-unstyled\">\r\n                    <div class=\"treeview hover p-l-10\">\r\n                    <ul class=\"list-unstyled\">\r\n                        <li class=\"list-unstyled\"><input id=\"test-denominator_118\" type=\"checkbox\"/><label for=\"test-denominator_118\" class=\"list-header\"><strong>Denominator</strong></label>\r\n                        <ul class=\"code\">\r\n                        <li class=\"list-unstyled\">\r\n                        <div class=\"treeview hover p-l-10\">\r\n                            <ul>\r\n                            <li style=\"padding-left: 0px;\">\r\n                            <div>\r\n                            <pre class=\"cql-definition-body\">TJC.&quot;Ischemic Stroke Encounter&quot;</pre>\r\n                            </div></li>\r\n                            </ul>%26nbsp;\r\n                        </div></li>\r\n                        </ul></li>\r\n                    </ul>\r\n                    </div></li>\r\n                    <li style=\"list-style:none;padding-left:0px;\" class=\"list-unstyled\">\r\n                    <div class=\"treeview hover p-l-10\">\r\n                    <ul class=\"list-unstyled\">\r\n                        <li class=\"list-unstyled\"><input id=\"test-denominatorExclusions_715\" type=\"checkbox\"/><label for=\"test-denominatorExclusions_715\" class=\"list-header\"><strong>Denominator Exclusions</strong></label>\r\n                        <ul class=\"code\">\r\n                        <li class=\"list-unstyled\">\r\n                        <div class=\"treeview hover p-l-10\">\r\n                            <ul>\r\n                            <li style=\"padding-left: 0px;\">\r\n                            <div>\r\n                            <pre class=\"cql-definition-body\">TJC.&quot;Ischemic Stroke Encounters with Discharge Disposition&quot;\r\n                union TJC.&quot;Comfort Measures during Hospitalization&quot;</pre>\r\n                            </div></li>\r\n                            </ul>%26nbsp;\r\n                        </div></li>\r\n                        </ul></li>\r\n                    </ul>\r\n                    </div></li>\r\n                    <li style=\"list-style:none;padding-left:0px;\" class=\"list-unstyled\">\r\n                    <div class=\"treeview hover p-l-10\">\r\n                    <ul class=\"list-unstyled\">\r\n                        <li class=\"list-unstyled\"><input id=\"test-numerator_500\" type=\"checkbox\"/><label for=\"test-numerator_500\" class=\"list-header\"><strong>Numerator</strong></label>\r\n                        <ul class=\"code\">\r\n                        <li class=\"list-unstyled\">\r\n                        <div class=\"treeview hover p-l-10\">\r\n                            <ul>\r\n                            <li style=\"padding-left: 0px;\">\r\n                            <div>\r\n                            <pre class=\"cql-definition-body\">TJC.&quot;Ischemic Stroke Encounter&quot; IschemicStrokeEncounter\r\n                with &quot;Statin at Discharge&quot; DischargeStatin\r\n                    such that DischargeStatin.authorDatetime during IschemicStrokeEncounter.relevantPeriod</pre>\r\n                            </div></li>\r\n                            </ul>%26nbsp;\r\n                        </div></li>\r\n                        </ul></li>\r\n                    </ul>\r\n                    </div></li>\r\n                    <li style=\"list-style:none;padding-left:0px;\" class=\"list-unstyled\">\r\n                    <div class=\"treeview hover p-l-10\">\r\n                    <ul class=\"list-unstyled\">\r\n                        <li class=\"list-unstyled\"><input id=\"test-numeratorExclusions_564\" type=\"checkbox\"/><label for=\"test-numeratorExclusions_564\" class=\"list-header\"><strong>Numerator Exclusions</strong></label>\r\n                        <ul class=\"code\">\r\n                        <li>\r\n                        <div id=\"test-None_340\">\r\n                            <strong class=\"cql-class\">None</strong>\r\n                        </div></li>\r\n                        </ul></li>\r\n                    </ul>\r\n                    </div></li>\r\n                    <li style=\"list-style:none;padding-left:0px;\" class=\"list-unstyled\">\r\n                    <div class=\"treeview hover p-l-10\">\r\n                    <ul class=\"list-unstyled\">\r\n                        <li class=\"list-unstyled\"><input id=\"test-denominatorExceptions_547\" type=\"checkbox\"/><label for=\"test-denominatorExceptions_547\" class=\"list-header\"><strong>Denominator Exceptions</strong></label>\r\n                        <ul class=\"code\">\r\n                        <li class=\"list-unstyled\">\r\n                        <div class=\"treeview hover p-l-10\">\r\n                            <ul>\r\n                            <li style=\"padding-left: 0px;\">\r\n                            <div>\r\n                            <pre class=\"cql-definition-body\">( TJC.&quot;Ischemic Stroke Encounter&quot; IschemicStrokeEncounter\r\n                    with &quot;Statin Not Given at Discharge&quot; NoDischargeStatin\r\n                    such that NoDischargeStatin.authorDatetime during IschemicStrokeEncounter.relevantPeriod\r\n                )\r\n                union ( TJC.&quot;Ischemic Stroke Encounter&quot; IschemicStrokeEncounter\r\n                    with &quot;Statin Allergy&quot; StatinAllergy\r\n                        such that StatinAllergy.prevalencePeriod starts on or before end of IschemicStrokeEncounter.relevantPeriod\r\n                )\r\n                union &quot;Encounter with Max LDL less than 70 mg per dL&quot;</pre>\r\n                            </div></li>\r\n                            </ul>%26nbsp;\r\n                        </div></li>\r\n                        </ul></li>\r\n                    </ul>\r\n                    </div></li>\r\n                    <li style=\"list-style:none;padding-left:0px;\" class=\"list-unstyled\">\r\n                    <div class=\"treeview hover p-l-10\">\r\n                    <ul class=\"list-unstyled\">\r\n                        <li class=\"list-unstyled\"><input id=\"test-stratum_849\" type=\"checkbox\"/><label for=\"test-stratum_849\" class=\"list-header\"><strong>Stratification</strong></label>\r\n                        <ul class=\"code\">\r\n                        <li>\r\n                        <div id=\"test-None_719\">\r\n                            <strong class=\"cql-class\">None</strong>\r\n                        </div></li>\r\n                        </ul></li>\r\n                    </ul>\r\n                    </div></li>\r\n                    </ul>\r\n                </div>\r\n                <h3><a name=\"d1e649\" href=\"#toc\">Definitions</a></h3>\r\n                <div>\r\n                    <ul style=\"list-style:none;padding-left: 10px;\">\r\n                    <li style=\"list-style:none;\" class=\"list-unstyled\">\r\n                    <div>\r\n                    <ul style=\"list-style:none;padding-left:0;\" class=\"list-unstyled\">\r\n                        <li class=\"list-unstyled\">\r\n                        <div class=\"treeview hover p-l-10\">\r\n                        <input id=\"test-Denominator_105\" type=\"checkbox\"/>\r\n                        <label for=\"test-Denominator_105\" class=\"list-header\"><strong> Denominator</strong></label>\r\n                        <ul style=\"margin-right: 20%; opacity: 1;\" class=\"code\">\r\n                        <li class=\"list-unstyled\">\r\n                            <div>\r\n                            <ul style=\"padding-left: 0px;\">\r\n                            <li style=\"padding-left: 0px;\" class=\"list-unstyled\">\r\n                            <div>\r\n                                <pre class=\"cql-definition-body\">TJC.&quot;Ischemic Stroke Encounter&quot;</pre>\r\n                            </div></li>\r\n                            </ul>%26nbsp;\r\n                            </div></li>\r\n                        </ul>\r\n                        </div></li>\r\n                    </ul>\r\n                    <ul style=\"list-style:none;padding-left:0;\" class=\"list-unstyled\">\r\n                        <li class=\"list-unstyled\">\r\n                        <div class=\"treeview hover p-l-10\">\r\n                        <input id=\"test-Denominator_Exceptions_100\" type=\"checkbox\"/>\r\n                        <label for=\"test-Denominator_Exceptions_100\" class=\"list-header\"><strong> Denominator Exceptions</strong></label>\r\n                        <ul style=\"margin-right: 20%; opacity: 1;\" class=\"code\">\r\n                        <li class=\"list-unstyled\">\r\n                            <div>\r\n                            <ul style=\"padding-left: 0px;\">\r\n                            <li style=\"padding-left: 0px;\" class=\"list-unstyled\">\r\n                            <div>\r\n                                <pre class=\"cql-definition-body\">( TJC.&quot;Ischemic Stroke Encounter&quot; IschemicStrokeEncounter\r\n                    with &quot;Statin Not Given at Discharge&quot; NoDischargeStatin\r\n                    such that NoDischargeStatin.authorDatetime during IschemicStrokeEncounter.relevantPeriod\r\n                )\r\n                union ( TJC.&quot;Ischemic Stroke Encounter&quot; IschemicStrokeEncounter\r\n                    with &quot;Statin Allergy&quot; StatinAllergy\r\n                        such that StatinAllergy.prevalencePeriod starts on or before end of IschemicStrokeEncounter.relevantPeriod\r\n                )\r\n                union &quot;Encounter with Max LDL less than 70 mg per dL&quot;</pre>\r\n                            </div></li>\r\n                            </ul>%26nbsp;\r\n                            </div></li>\r\n                        </ul>\r\n                        </div></li>\r\n                    </ul>\r\n                    <ul style=\"list-style:none;padding-left:0;\" class=\"list-unstyled\">\r\n                        <li class=\"list-unstyled\">\r\n                        <div class=\"treeview hover p-l-10\">\r\n                        <input id=\"test-Denominator_Exclusions_204\" type=\"checkbox\"/>\r\n                        <label for=\"test-Denominator_Exclusions_204\" class=\"list-header\"><strong> Denominator Exclusions</strong></label>\r\n                        <ul style=\"margin-right: 20%; opacity: 1;\" class=\"code\">\r\n                        <li class=\"list-unstyled\">\r\n                            <div>\r\n                            <ul style=\"padding-left: 0px;\">\r\n                            <li style=\"padding-left: 0px;\" class=\"list-unstyled\">\r\n                            <div>\r\n                                <pre class=\"cql-definition-body\">TJC.&quot;Ischemic Stroke Encounters with Discharge Disposition&quot;\r\n                union TJC.&quot;Comfort Measures during Hospitalization&quot;</pre>\r\n                            </div></li>\r\n                            </ul>%26nbsp;\r\n                            </div></li>\r\n                        </ul>\r\n                        </div></li>\r\n                    </ul>\r\n                    <ul style=\"list-style:none;padding-left:0;\" class=\"list-unstyled\">\r\n                        <li class=\"list-unstyled\">\r\n                        <div class=\"treeview hover p-l-10\">\r\n                        <input id=\"test-Encounter_with_Max_LDL_less_than_70_mg_per_dL_460\" type=\"checkbox\"/>\r\n                        <label for=\"test-Encounter_with_Max_LDL_less_than_70_mg_per_dL_460\" class=\"list-header\"><strong> Encounter with Max LDL less than 70 mg per dL</strong></label>\r\n                        <ul style=\"margin-right: 20%; opacity: 1;\" class=\"code\">\r\n                        <li class=\"list-unstyled\">\r\n                            <div>\r\n                            <ul style=\"padding-left: 0px;\">\r\n                            <li style=\"padding-left: 0px;\" class=\"list-unstyled\">\r\n                            <div>\r\n                                <pre class=\"cql-definition-body\">TJC.&quot;Ischemic Stroke Encounter&quot; IschemicStrokeEncounter\r\n                where Max([&quot;Laboratory Test, Performed&quot;: &quot;LDL-c&quot;] Ldl\r\n                    where Ldl.resultDatetime during Interval[Global.&quot;ToDate&quot;(start of IschemicStrokeEncounter.relevantPeriod - 30 days), end of IschemicStrokeEncounter.relevantPeriod]\r\n                    return Ldl.result as Quantity\r\n                )%26lt; 70 'mg/dL'</pre>\r\n                            </div></li>\r\n                            </ul>%26nbsp;\r\n                            </div></li>\r\n                        </ul>\r\n                        </div></li>\r\n                    </ul>\r\n                    <ul style=\"list-style:none;padding-left:0;\" class=\"list-unstyled\">\r\n                        <li class=\"list-unstyled\">\r\n                        <div class=\"treeview hover p-l-10\">\r\n                        <input id=\"test-Initial_Population_603\" type=\"checkbox\"/>\r\n                        <label for=\"test-Initial_Population_603\" class=\"list-header\"><strong> Initial Population</strong></label>\r\n                        <ul style=\"margin-right: 20%; opacity: 1;\" class=\"code\">\r\n                        <li class=\"list-unstyled\">\r\n                            <div>\r\n                            <ul style=\"padding-left: 0px;\">\r\n                            <li style=\"padding-left: 0px;\" class=\"list-unstyled\">\r\n                            <div>\r\n                                <pre class=\"cql-definition-body\">TJC.&quot;Encounter with Principal Diagnosis and Age&quot;</pre>\r\n                            </div></li>\r\n                            </ul>%26nbsp;\r\n                            </div></li>\r\n                        </ul>\r\n                        </div></li>\r\n                    </ul>\r\n                    <ul style=\"list-style:none;padding-left:0;\" class=\"list-unstyled\">\r\n                        <li class=\"list-unstyled\">\r\n                        <div class=\"treeview hover p-l-10\">\r\n                        <input id=\"test-Numerator_889\" type=\"checkbox\"/>\r\n                        <label for=\"test-Numerator_889\" class=\"list-header\"><strong> Numerator</strong></label>\r\n                        <ul style=\"margin-right: 20%; opacity: 1;\" class=\"code\">\r\n                        <li class=\"list-unstyled\">\r\n                            <div>\r\n                            <ul style=\"padding-left: 0px;\">\r\n                            <li style=\"padding-left: 0px;\" class=\"list-unstyled\">\r\n                            <div>\r\n                                <pre class=\"cql-definition-body\">TJC.&quot;Ischemic Stroke Encounter&quot; IschemicStrokeEncounter\r\n                with &quot;Statin at Discharge&quot; DischargeStatin\r\n                    such that DischargeStatin.authorDatetime during IschemicStrokeEncounter.relevantPeriod</pre>\r\n                            </div></li>\r\n                            </ul>%26nbsp;\r\n                            </div></li>\r\n                        </ul>\r\n                        </div></li>\r\n                    </ul>\r\n                    <ul style=\"list-style:none;padding-left:0;\" class=\"list-unstyled\">\r\n                        <li class=\"list-unstyled\">\r\n                        <div class=\"treeview hover p-l-10\">\r\n                        <input id=\"test-SDE_Ethnicity_86\" type=\"checkbox\"/>\r\n                        <label for=\"test-SDE_Ethnicity_86\" class=\"list-header\"><strong> SDE Ethnicity</strong></label>\r\n                        <ul style=\"margin-right: 20%; opacity: 1;\" class=\"code\">\r\n                        <li class=\"list-unstyled\">\r\n                            <div>\r\n                            <ul style=\"padding-left: 0px;\">\r\n                            <li style=\"padding-left: 0px;\" class=\"list-unstyled\">\r\n                            <div>\r\n                                <pre class=\"cql-definition-body\">[&quot;Patient Characteristic Ethnicity&quot;: &quot;Ethnicity&quot;]</pre>\r\n                            </div></li>\r\n                            </ul>%26nbsp;\r\n                            </div></li>\r\n                        </ul>\r\n                        </div></li>\r\n                    </ul>\r\n                    <ul style=\"list-style:none;padding-left:0;\" class=\"list-unstyled\">\r\n                        <li class=\"list-unstyled\">\r\n                        <div class=\"treeview hover p-l-10\">\r\n                        <input id=\"test-SDE_Payer_85\" type=\"checkbox\"/>\r\n                        <label for=\"test-SDE_Payer_85\" class=\"list-header\"><strong> SDE Payer</strong></label>\r\n                        <ul style=\"margin-right: 20%; opacity: 1;\" class=\"code\">\r\n                        <li class=\"list-unstyled\">\r\n                            <div>\r\n                            <ul style=\"padding-left: 0px;\">\r\n                            <li style=\"padding-left: 0px;\" class=\"list-unstyled\">\r\n                            <div>\r\n                                <pre class=\"cql-definition-body\">[&quot;Patient Characteristic Payer&quot;: &quot;Payer&quot;]</pre>\r\n                            </div></li>\r\n                            </ul>%26nbsp;\r\n                            </div></li>\r\n                        </ul>\r\n                        </div></li>\r\n                    </ul>\r\n                    <ul style=\"list-style:none;padding-left:0;\" class=\"list-unstyled\">\r\n                        <li class=\"list-unstyled\">\r\n                        <div class=\"treeview hover p-l-10\">\r\n                        <input id=\"test-SDE_Race_499\" type=\"checkbox\"/>\r\n                        <label for=\"test-SDE_Race_499\" class=\"list-header\"><strong> SDE Race</strong></label>\r\n                        <ul style=\"margin-right: 20%; opacity: 1;\" class=\"code\">\r\n                        <li class=\"list-unstyled\">\r\n                            <div>\r\n                            <ul style=\"padding-left: 0px;\">\r\n                            <li style=\"padding-left: 0px;\" class=\"list-unstyled\">\r\n                            <div>\r\n                                <pre class=\"cql-definition-body\">[&quot;Patient Characteristic Race&quot;: &quot;Race&quot;]</pre>\r\n                            </div></li>\r\n                            </ul>%26nbsp;\r\n                            </div></li>\r\n                        </ul>\r\n                        </div></li>\r\n                    </ul>\r\n                    <ul style=\"list-style:none;padding-left:0;\" class=\"list-unstyled\">\r\n                        <li class=\"list-unstyled\">\r\n                        <div class=\"treeview hover p-l-10\">\r\n                        <input id=\"test-SDE_Sex_77\" type=\"checkbox\"/>\r\n                        <label for=\"test-SDE_Sex_77\" class=\"list-header\"><strong> SDE Sex</strong></label>\r\n                        <ul style=\"margin-right: 20%; opacity: 1;\" class=\"code\">\r\n                        <li class=\"list-unstyled\">\r\n                            <div>\r\n                            <ul style=\"padding-left: 0px;\">\r\n                            <li style=\"padding-left: 0px;\" class=\"list-unstyled\">\r\n                            <div>\r\n                                <pre class=\"cql-definition-body\">[&quot;Patient Characteristic Sex&quot;: &quot;ONC Administrative Sex&quot;] </pre>\r\n                            </div></li>\r\n                            </ul>%26nbsp;\r\n                            </div></li>\r\n                        </ul>\r\n                        </div></li>\r\n                    </ul>\r\n                    <ul style=\"list-style:none;padding-left:0;\" class=\"list-unstyled\">\r\n                        <li class=\"list-unstyled\">\r\n                        <div class=\"treeview hover p-l-10\">\r\n                        <input id=\"test-Statin_Allergy_455\" type=\"checkbox\"/>\r\n                        <label for=\"test-Statin_Allergy_455\" class=\"list-header\"><strong> Statin Allergy</strong></label>\r\n                        <ul style=\"margin-right: 20%; opacity: 1;\" class=\"code\">\r\n                        <li class=\"list-unstyled\">\r\n                            <div>\r\n                            <ul style=\"padding-left: 0px;\">\r\n                            <li style=\"padding-left: 0px;\" class=\"list-unstyled\">\r\n                            <div>\r\n                                <pre class=\"cql-definition-body\">[&quot;Allergy/Intolerance&quot;: &quot;Statin Allergen&quot;]</pre>\r\n                            </div></li>\r\n                            </ul>%26nbsp;\r\n                            </div></li>\r\n                        </ul>\r\n                        </div></li>\r\n                    </ul>\r\n                    <ul style=\"list-style:none;padding-left:0;\" class=\"list-unstyled\">\r\n                        <li class=\"list-unstyled\">\r\n                        <div class=\"treeview hover p-l-10\">\r\n                        <input id=\"test-Statin_at_Discharge_136\" type=\"checkbox\"/>\r\n                        <label for=\"test-Statin_at_Discharge_136\" class=\"list-header\"><strong> Statin at Discharge</strong></label>\r\n                        <ul style=\"margin-right: 20%; opacity: 1;\" class=\"code\">\r\n                        <li class=\"list-unstyled\">\r\n                            <div>\r\n                            <ul style=\"padding-left: 0px;\">\r\n                            <li style=\"padding-left: 0px;\" class=\"list-unstyled\">\r\n                            <div>\r\n                                <pre class=\"cql-definition-body\">[&quot;Medication, Discharge&quot;: &quot;Statin Grouper&quot;]</pre>\r\n                            </div></li>\r\n                            </ul>%26nbsp;\r\n                            </div></li>\r\n                        </ul>\r\n                        </div></li>\r\n                    </ul>\r\n                    <ul style=\"list-style:none;padding-left:0;\" class=\"list-unstyled\">\r\n                        <li class=\"list-unstyled\">\r\n                        <div class=\"treeview hover p-l-10\">\r\n                        <input id=\"test-Statin_Not_Given_at_Discharge_73\" type=\"checkbox\"/>\r\n                        <label for=\"test-Statin_Not_Given_at_Discharge_73\" class=\"list-header\"><strong> Statin Not Given at Discharge</strong></label>\r\n                        <ul style=\"margin-right: 20%; opacity: 1;\" class=\"code\">\r\n                        <li class=\"list-unstyled\">\r\n                            <div>\r\n                            <ul style=\"padding-left: 0px;\">\r\n                            <li style=\"padding-left: 0px;\" class=\"list-unstyled\">\r\n                            <div>\r\n                                <pre class=\"cql-definition-body\">[&quot;Medication, Not Discharged&quot;: &quot;Statin Grouper&quot;] NoStatinDischarge\r\n                where NoStatinDischarge.negationRationale in &quot;Medical Reason&quot;\r\n                    or NoStatinDischarge.negationRationale in &quot;Patient Refusal&quot;</pre>\r\n                            </div></li>\r\n                            </ul>%26nbsp;\r\n                            </div></li>\r\n                        </ul>\r\n                        </div></li>\r\n                    </ul>\r\n                    <ul style=\"list-style:none;padding-left:0;\" class=\"list-unstyled\">\r\n                        <li class=\"list-unstyled\">\r\n                        <div class=\"treeview hover p-l-10\">\r\n                        <input id=\"test-TJC.All_Stroke_Encounter_654\" type=\"checkbox\"/>\r\n                        <label for=\"test-TJC.All_Stroke_Encounter_654\" class=\"list-header\"><strong> TJC.All Stroke Encounter</strong></label>\r\n                        <ul style=\"margin-right: 20%; opacity: 1;\" class=\"code\">\r\n                        <li class=\"list-unstyled\">\r\n                            <div>\r\n                            <ul style=\"padding-left: 0px;\">\r\n                            <li style=\"padding-left: 0px;\" class=\"list-unstyled\">\r\n                            <div>\r\n                                <pre class=\"cql-definition-body\">&quot;Non Elective Inpatient Encounter&quot; NonElectiveEncounter\r\n                where NonElectiveEncounter.principalDiagnosis in &quot;Hemorrhagic Stroke&quot;\r\n                    or NonElectiveEncounter.principalDiagnosis in &quot;Ischemic Stroke&quot;</pre>\r\n                            </div></li>\r\n                            </ul>%26nbsp;\r\n                            </div></li>\r\n                        </ul>\r\n                        </div></li>\r\n                    </ul>\r\n                    <ul style=\"list-style:none;padding-left:0;\" class=\"list-unstyled\">\r\n                        <li class=\"list-unstyled\">\r\n                        <div class=\"treeview hover p-l-10\">\r\n                        <input id=\"test-TJC.Comfort_Measures_during_Hospitalization_603\" type=\"checkbox\"/>\r\n                        <label for=\"test-TJC.Comfort_Measures_during_Hospitalization_603\" class=\"list-header\"><strong> TJC.Comfort Measures during Hospitalization</strong></label>\r\n                        <ul style=\"margin-right: 20%; opacity: 1;\" class=\"code\">\r\n                        <li class=\"list-unstyled\">\r\n                            <div>\r\n                            <ul style=\"padding-left: 0px;\">\r\n                            <li style=\"padding-left: 0px;\" class=\"list-unstyled\">\r\n                            <div>\r\n                                <pre class=\"cql-definition-body\">&quot;Ischemic Stroke Encounter&quot; IschemicStrokeEncounter\r\n                with &quot;Intervention Comfort Measures&quot; ComfortMeasure\r\n                    such that Coalesce(start of ComfortMeasure.relevantPeriod, ComfortMeasure.authorDatetime)during Global.&quot;HospitalizationWithObservation&quot;(IschemicStrokeEncounter)</pre>\r\n                            </div></li>\r\n                            </ul>%26nbsp;\r\n                            </div></li>\r\n                        </ul>\r\n                        </div></li>\r\n                    </ul>\r\n                    <ul style=\"list-style:none;padding-left:0;\" class=\"list-unstyled\">\r\n                        <li class=\"list-unstyled\">\r\n                        <div class=\"treeview hover p-l-10\">\r\n                        <input id=\"test-TJC.Encounter_with_Principal_Diagnosis_and_Age_702\" type=\"checkbox\"/>\r\n                        <label for=\"test-TJC.Encounter_with_Principal_Diagnosis_and_Age_702\" class=\"list-header\"><strong> TJC.Encounter with Principal Diagnosis and Age</strong></label>\r\n                        <ul style=\"margin-right: 20%; opacity: 1;\" class=\"code\">\r\n                        <li class=\"list-unstyled\">\r\n                            <div>\r\n                            <ul style=\"padding-left: 0px;\">\r\n                            <li style=\"padding-left: 0px;\" class=\"list-unstyled\">\r\n                            <div>\r\n                                <pre class=\"cql-definition-body\">&quot;All Stroke Encounter&quot; AllStrokeEncounter\r\n                with [&quot;Patient Characteristic Birthdate&quot;: &quot;Birth date&quot;] BirthDate\r\n                    such that Global.&quot;CalendarAgeInYearsAt&quot;(BirthDate.birthDatetime, start of AllStrokeEncounter.relevantPeriod)%26gt;= 18</pre>\r\n                            </div></li>\r\n                            </ul>%26nbsp;\r\n                            </div></li>\r\n                        </ul>\r\n                        </div></li>\r\n                    </ul>\r\n                    <ul style=\"list-style:none;padding-left:0;\" class=\"list-unstyled\">\r\n                        <li class=\"list-unstyled\">\r\n                        <div class=\"treeview hover p-l-10\">\r\n                        <input id=\"test-TJC.Intervention_Comfort_Measures_365\" type=\"checkbox\"/>\r\n                        <label for=\"test-TJC.Intervention_Comfort_Measures_365\" class=\"list-header\"><strong> TJC.Intervention Comfort Measures</strong></label>\r\n                        <ul style=\"margin-right: 20%; opacity: 1;\" class=\"code\">\r\n                        <li class=\"list-unstyled\">\r\n                            <div>\r\n                            <ul style=\"padding-left: 0px;\">\r\n                            <li style=\"padding-left: 0px;\" class=\"list-unstyled\">\r\n                            <div>\r\n                                <pre class=\"cql-definition-body\">[&quot;Intervention, Order&quot;: &quot;Comfort Measures&quot;]\r\n                union [&quot;Intervention, Performed&quot;: &quot;Comfort Measures&quot;]</pre>\r\n                            </div></li>\r\n                            </ul>%26nbsp;\r\n                            </div></li>\r\n                        </ul>\r\n                        </div></li>\r\n                    </ul>\r\n                    <ul style=\"list-style:none;padding-left:0;\" class=\"list-unstyled\">\r\n                        <li class=\"list-unstyled\">\r\n                        <div class=\"treeview hover p-l-10\">\r\n                        <input id=\"test-TJC.Ischemic_Stroke_Encounter_432\" type=\"checkbox\"/>\r\n                        <label for=\"test-TJC.Ischemic_Stroke_Encounter_432\" class=\"list-header\"><strong> TJC.Ischemic Stroke Encounter</strong></label>\r\n                        <ul style=\"margin-right: 20%; opacity: 1;\" class=\"code\">\r\n                        <li class=\"list-unstyled\">\r\n                            <div>\r\n                            <ul style=\"padding-left: 0px;\">\r\n                            <li style=\"padding-left: 0px;\" class=\"list-unstyled\">\r\n                            <div>\r\n                                <pre class=\"cql-definition-body\">&quot;Encounter with Principal Diagnosis and Age&quot; EncounterWithAge\r\n                where EncounterWithAge.principalDiagnosis in &quot;Ischemic Stroke&quot;</pre>\r\n                            </div></li>\r\n                            </ul>%26nbsp;\r\n                            </div></li>\r\n                        </ul>\r\n                        </div></li>\r\n                    </ul>\r\n                    <ul style=\"list-style:none;padding-left:0;\" class=\"list-unstyled\">\r\n                        <li class=\"list-unstyled\">\r\n                        <div class=\"treeview hover p-l-10\">\r\n                        <input id=\"test-TJC.Ischemic_Stroke_Encounters_with_Discharge_Disposition_985\" type=\"checkbox\"/>\r\n                        <label for=\"test-TJC.Ischemic_Stroke_Encounters_with_Discharge_Disposition_985\" class=\"list-header\"><strong> TJC.Ischemic Stroke Encounters with Discharge Disposition</strong></label>\r\n                        <ul style=\"margin-right: 20%; opacity: 1;\" class=\"code\">\r\n                        <li class=\"list-unstyled\">\r\n                            <div>\r\n                            <ul style=\"padding-left: 0px;\">\r\n                            <li style=\"padding-left: 0px;\" class=\"list-unstyled\">\r\n                            <div>\r\n                                <pre class=\"cql-definition-body\">( ( &quot;Ischemic Stroke Encounter&quot; IschemicStrokeEncounter\r\n                    where IschemicStrokeEncounter.dischargeDisposition in &quot;Discharge To Acute Care Facility&quot;\r\n                        or IschemicStrokeEncounter.dischargeDisposition in &quot;Left Against Medical Advice&quot;\r\n                        or IschemicStrokeEncounter.dischargeDisposition in &quot;Patient Expired&quot;\r\n                        or IschemicStrokeEncounter.dischargeDisposition in &quot;Discharged to Home for Hospice Care&quot;\r\n                        or IschemicStrokeEncounter.dischargeDisposition in &quot;Discharged to Health Care Facility for Hospice Care&quot;\r\n                )\r\n                )</pre>\r\n                            </div></li>\r\n                            </ul>%26nbsp;\r\n                            </div></li>\r\n                        </ul>\r\n                        </div></li>\r\n                    </ul>\r\n                    <ul style=\"list-style:none;padding-left:0;\" class=\"list-unstyled\">\r\n                        <li class=\"list-unstyled\">\r\n                        <div class=\"treeview hover p-l-10\">\r\n                        <input id=\"test-TJC.Non_Elective_Inpatient_Encounter_610\" type=\"checkbox\"/>\r\n                        <label for=\"test-TJC.Non_Elective_Inpatient_Encounter_610\" class=\"list-header\"><strong> TJC.Non Elective Inpatient Encounter</strong></label>\r\n                        <ul style=\"margin-right: 20%; opacity: 1;\" class=\"code\">\r\n                        <li class=\"list-unstyled\">\r\n                            <div>\r\n                            <ul style=\"padding-left: 0px;\">\r\n                            <li style=\"padding-left: 0px;\" class=\"list-unstyled\">\r\n                            <div>\r\n                                <pre class=\"cql-definition-body\">[&quot;Encounter, Performed&quot;: &quot;Non-Elective Inpatient Encounter&quot;] NonElectiveEncounter\r\n                where Global.&quot;LengthInDays&quot;(NonElectiveEncounter.relevantPeriod)%26lt;= 120\r\n                    and NonElectiveEncounter.relevantPeriod ends during &quot;Measurement Period&quot;</pre>\r\n                            </div></li>\r\n                            </ul>%26nbsp;\r\n                            </div></li>\r\n                        </ul>\r\n                        </div></li>\r\n                    </ul>\r\n                    </div></li>\r\n                    </ul>\r\n                </div>\r\n                <h3><a name=\"d1e650\" href=\"#toc\">Functions</a></h3>\r\n                <div>\r\n                    <ul style=\"list-style:none;padding-left: 10px;\">\r\n                    <li style=\"list-style:none;\" class=\"list-unstyled\">\r\n                    <div>\r\n                    <ul style=\"list-style:none;padding-left:0;\" class=\"list-unstyled\">\r\n                        <li class=\"list-unstyled\">\r\n                        <div class=\"treeview hover p-l-10\">\r\n                        <input id=\"test-Global.CalendarAgeInYearsAt_913\" type=\"checkbox\"/>\r\n                        <label for=\"test-Global.CalendarAgeInYearsAt_913\" class=\"list-header\"><strong> Global.CalendarAgeInYearsAt(BirthDateTime DateTime, AsOf DateTime)</strong></label>\r\n                        <ul style=\"margin-right: 20%; opacity: 1;\" class=\"code\">\r\n                        <li class=\"list-unstyled\">\r\n                            <div>\r\n                            <ul style=\"padding-left: 0px;\">\r\n                            <li style=\"padding-left: 0px;\" class=\"list-unstyled\">\r\n                            <div>\r\n                                <pre class=\"cql-definition-body\">years between ToDate(BirthDateTime)and ToDate(AsOf)</pre>\r\n                            </div></li>\r\n                            </ul>%26nbsp;\r\n                            </div></li>\r\n                        </ul>\r\n                        </div></li>\r\n                    </ul>\r\n                    <ul style=\"list-style:none;padding-left:0;\" class=\"list-unstyled\">\r\n                        <li class=\"list-unstyled\">\r\n                        <div class=\"treeview hover p-l-10\">\r\n                        <input id=\"test-Global.HospitalizationWithObservation_692\" type=\"checkbox\"/>\r\n                        <label for=\"test-Global.HospitalizationWithObservation_692\" class=\"list-header\"><strong> Global.HospitalizationWithObservation(Encounter &quot;Encounter, Performed&quot;)</strong></label>\r\n                        <ul style=\"margin-right: 20%; opacity: 1;\" class=\"code\">\r\n                        <li class=\"list-unstyled\">\r\n                            <div>\r\n                            <ul style=\"padding-left: 0px;\">\r\n                            <li style=\"padding-left: 0px;\" class=\"list-unstyled\">\r\n                            <div>\r\n                                <pre class=\"cql-definition-body\">Encounter Visit\r\n                let ObsVisit: Last([&quot;Encounter, Performed&quot;: &quot;Observation Services&quot;] LastObs\r\n                    where LastObs.relevantPeriod ends 1 hour or less on or before start of Visit.relevantPeriod\r\n                    sort by \r\n                    end of relevantPeriod\r\n                ),\r\n                VisitStart: Coalesce(start of ObsVisit.relevantPeriod, start of Visit.relevantPeriod),\r\n                EDVisit: Last([&quot;Encounter, Performed&quot;: &quot;Emergency Department Visit&quot;] LastED\r\n                    where LastED.relevantPeriod ends 1 hour or less on or before VisitStart\r\n                    sort by \r\n                    end of relevantPeriod\r\n                )\r\n                return Interval[Coalesce(start of EDVisit.relevantPeriod, VisitStart), \r\n                end of Visit.relevantPeriod]</pre>\r\n                            </div></li>\r\n                            </ul>%26nbsp;\r\n                            </div></li>\r\n                        </ul>\r\n                        </div></li>\r\n                    </ul>\r\n                    <ul style=\"list-style:none;padding-left:0;\" class=\"list-unstyled\">\r\n                        <li class=\"list-unstyled\">\r\n                        <div class=\"treeview hover p-l-10\">\r\n                        <input id=\"test-Global.LengthInDays_732\" type=\"checkbox\"/>\r\n                        <label for=\"test-Global.LengthInDays_732\" class=\"list-header\"><strong> Global.LengthInDays(Value Interval%26lt;DateTime%26gt;)</strong></label>\r\n                        <ul style=\"margin-right: 20%; opacity: 1;\" class=\"code\">\r\n                        <li class=\"list-unstyled\">\r\n                            <div>\r\n                            <ul style=\"padding-left: 0px;\">\r\n                            <li style=\"padding-left: 0px;\" class=\"list-unstyled\">\r\n                            <div>\r\n                                <pre class=\"cql-definition-body\">difference in days between start of Value and end of Value</pre>\r\n                            </div></li>\r\n                            </ul>%26nbsp;\r\n                            </div></li>\r\n                        </ul>\r\n                        </div></li>\r\n                    </ul>\r\n                    <ul style=\"list-style:none;padding-left:0;\" class=\"list-unstyled\">\r\n                        <li class=\"list-unstyled\">\r\n                        <div class=\"treeview hover p-l-10\">\r\n                        <input id=\"test-Global.ToDate_606\" type=\"checkbox\"/>\r\n                        <label for=\"test-Global.ToDate_606\" class=\"list-header\"><strong> Global.ToDate(Value DateTime)</strong></label>\r\n                        <ul style=\"margin-right: 20%; opacity: 1;\" class=\"code\">\r\n                        <li class=\"list-unstyled\">\r\n                            <div>\r\n                            <ul style=\"padding-left: 0px;\">\r\n                            <li style=\"padding-left: 0px;\" class=\"list-unstyled\">\r\n                            <div>\r\n                                <pre class=\"cql-definition-body\">DateTime(year from Value, month from Value, day from Value, 0, 0, 0, 0, timezone from Value)</pre>\r\n                            </div></li>\r\n                            </ul>%26nbsp;\r\n                            </div></li>\r\n                        </ul>\r\n                        </div></li>\r\n                    </ul>\r\n                    </div></li>\r\n                    </ul>\r\n                </div>\r\n                <h3><a name=\"d1e555\" href=\"#toc\">Terminology</a></h3>\r\n                <div>\r\n                    <ul style=\"padding-left: 50px;\">\r\n                    <li style=\"width:80%\">code &quot;Birth date&quot; (&quot;LOINC Code (21112-8)&quot;)</li>\r\n                    <li>valueset &quot;Comfort Measures&quot; (1.3.6.1.4.1.33895.1.3.0.45)</li>\r\n                    <li>valueset &quot;Discharge To Acute Care Facility&quot; (2.16.840.1.113883.3.117.1.7.1.87)</li>\r\n                    <li>valueset &quot;Discharged to Health Care Facility for Hospice Care&quot; (2.16.840.1.113883.3.117.1.7.1.207)</li>\r\n                    <li>valueset &quot;Discharged to Home for Hospice Care&quot; (2.16.840.1.113883.3.117.1.7.1.209)</li>\r\n                    <li>valueset &quot;Emergency Department Visit&quot; (2.16.840.1.113883.3.117.1.7.1.292)</li>\r\n                    <li>valueset &quot;Ethnicity&quot; (2.16.840.1.114222.4.11.837)</li>\r\n                    <li>valueset &quot;Hemorrhagic Stroke&quot; (2.16.840.1.113883.3.117.1.7.1.212)</li>\r\n                    <li>valueset &quot;Ischemic Stroke&quot; (2.16.840.1.113883.3.117.1.7.1.247)</li>\r\n                    <li>valueset &quot;LDL-c&quot; (2.16.840.1.113883.3.117.1.7.1.215)</li>\r\n                    <li>valueset &quot;Left Against Medical Advice&quot; (2.16.840.1.113883.3.117.1.7.1.308)</li>\r\n                    <li>valueset &quot;Medical Reason&quot; (2.16.840.1.113883.3.117.1.7.1.473)</li>\r\n                    <li>valueset &quot;Non-Elective Inpatient Encounter&quot; (2.16.840.1.113883.3.117.1.7.1.424)</li>\r\n                    <li>valueset &quot;Observation Services&quot; (2.16.840.1.113762.1.4.1111.143)</li>\r\n                    <li>valueset &quot;ONC Administrative Sex&quot; (2.16.840.1.113762.1.4.1)</li>\r\n                    <li>valueset &quot;Patient Expired&quot; (2.16.840.1.113883.3.117.1.7.1.309)</li>\r\n                    <li>valueset &quot;Patient Refusal&quot; (2.16.840.1.113883.3.117.1.7.1.93)</li>\r\n                    <li>valueset &quot;Payer&quot; (2.16.840.1.114222.4.11.3591)</li>\r\n                    <li>valueset &quot;Race&quot; (2.16.840.1.114222.4.11.836)</li>\r\n                    <li>valueset &quot;Statin Allergen&quot; (2.16.840.1.113762.1.4.1110.42)</li>\r\n                    <li>valueset &quot;Statin Grouper&quot; (2.16.840.1.113762.1.4.1110.19)</li>\r\n                    </ul>\r\n                </div>\r\n                <h3><a name=\"d1e647\" href=\"#toc\">Data Criteria (QDM Data Elements)</a></h3>\r\n                <ul style=\"padding-left: 50px;\">\r\n                    <li style=\"width:80%\">&quot;Allergy/Intolerance: Statin Allergen&quot; using &quot;Statin Allergen (2.16.840.1.113762.1.4.1110.42)&quot;</li>\r\n                    <li style=\"width:80%\">&quot;Encounter, Performed: Emergency Department Visit&quot; using &quot;Emergency Department Visit (2.16.840.1.113883.3.117.1.7.1.292)&quot;</li>\r\n                    <li style=\"width:80%\">&quot;Encounter, Performed: Non-Elective Inpatient Encounter&quot; using &quot;Non-Elective Inpatient Encounter (2.16.840.1.113883.3.117.1.7.1.424)&quot;</li>\r\n                    <li style=\"width:80%\">&quot;Encounter, Performed: Observation Services&quot; using &quot;Observation Services (2.16.840.1.113762.1.4.1111.143)&quot;</li>\r\n                    <li style=\"width:80%\">&quot;Intervention, Order: Comfort Measures&quot; using &quot;Comfort Measures (1.3.6.1.4.1.33895.1.3.0.45)&quot;</li>\r\n                    <li style=\"width:80%\">&quot;Intervention, Performed: Comfort Measures&quot; using &quot;Comfort Measures (1.3.6.1.4.1.33895.1.3.0.45)&quot;</li>\r\n                    <li style=\"width:80%\">&quot;Laboratory Test, Performed: LDL-c&quot; using &quot;LDL-c (2.16.840.1.113883.3.117.1.7.1.215)&quot;</li>\r\n                    <li style=\"width:80%\">&quot;Medication, Discharge: Statin Grouper&quot; using &quot;Statin Grouper (2.16.840.1.113762.1.4.1110.19)&quot;</li>\r\n                    <li style=\"width:80%\">&quot;Medication, Not Discharged: Statin Grouper&quot; using &quot;Statin Grouper (2.16.840.1.113762.1.4.1110.19)&quot;</li>\r\n                    <li style=\"width:80%\">&quot;Patient Characteristic Ethnicity: Ethnicity&quot; using &quot;Ethnicity (2.16.840.1.114222.4.11.837)&quot;</li>\r\n                    <li style=\"width:80%\">&quot;Patient Characteristic Payer: Payer&quot; using &quot;Payer (2.16.840.1.114222.4.11.3591)&quot;</li>\r\n                    <li style=\"width:80%\">&quot;Patient Characteristic Race: Race&quot; using &quot;Race (2.16.840.1.114222.4.11.836)&quot;</li>\r\n                    <li style=\"width:80%\">&quot;Patient Characteristic Sex: ONC Administrative Sex&quot; using &quot;ONC Administrative Sex (2.16.840.1.113762.1.4.1)&quot;</li>\r\n                    <li style=\"width:80%\">&quot;Patient Characteristic Birthdate: Birth date&quot; using &quot;Birth date (LOINC Code 21112-8)&quot;</li>\r\n                </ul>\r\n                <h3><a name=\"d1e767\" href=\"#toc\">Supplemental Data Elements</a></h3>\r\n                <div>\r\n                    <ul style=\"list-style:none;padding-left: 25px;\">\r\n                    <li class=\"list-unstyled\">\r\n                    <div class=\"treeview hover p-l-10\">\r\n                    <input id=\"test-SDE_Ethnicity_971\" type=\"checkbox\"/>\r\n                    <label for=\"test-SDE_Ethnicity_971\" class=\"list-header\"><strong> SDE Ethnicity</strong></label>\r\n                    <ul style=\"margin-right: 20%; opacity: 1;\" class=\"code\">\r\n                        <li class=\"list-unstyled\">\r\n                        <div>\r\n                        <ul style=\"padding-left: 0px;\">\r\n                        <li style=\"padding-left: 0px;\" class=\"list-unstyled\">\r\n                            <div>\r\n                            <pre class=\"cql-definition-body\">[&quot;Patient Characteristic Ethnicity&quot;: &quot;Ethnicity&quot;]</pre>\r\n                            </div></li>\r\n                        </ul>%26nbsp;\r\n                        </div></li>\r\n                    </ul>\r\n                    </div></li>\r\n                    <li class=\"list-unstyled\">\r\n                    <div class=\"treeview hover p-l-10\">\r\n                    <input id=\"test-SDE_Payer_645\" type=\"checkbox\"/>\r\n                    <label for=\"test-SDE_Payer_645\" class=\"list-header\"><strong> SDE Payer</strong></label>\r\n                    <ul style=\"margin-right: 20%; opacity: 1;\" class=\"code\">\r\n                        <li class=\"list-unstyled\">\r\n                        <div>\r\n                        <ul style=\"padding-left: 0px;\">\r\n                        <li style=\"padding-left: 0px;\" class=\"list-unstyled\">\r\n                            <div>\r\n                            <pre class=\"cql-definition-body\">[&quot;Patient Characteristic Payer&quot;: &quot;Payer&quot;]</pre>\r\n                            </div></li>\r\n                        </ul>%26nbsp;\r\n                        </div></li>\r\n                    </ul>\r\n                    </div></li>\r\n                    <li class=\"list-unstyled\">\r\n                    <div class=\"treeview hover p-l-10\">\r\n                    <input id=\"test-SDE_Race_2\" type=\"checkbox\"/>\r\n                    <label for=\"test-SDE_Race_2\" class=\"list-header\"><strong> SDE Race</strong></label>\r\n                    <ul style=\"margin-right: 20%; opacity: 1;\" class=\"code\">\r\n                        <li class=\"list-unstyled\">\r\n                        <div>\r\n                        <ul style=\"padding-left: 0px;\">\r\n                        <li style=\"padding-left: 0px;\" class=\"list-unstyled\">\r\n                            <div>\r\n                            <pre class=\"cql-definition-body\">[&quot;Patient Characteristic Race&quot;: &quot;Race&quot;]</pre>\r\n                            </div></li>\r\n                        </ul>%26nbsp;\r\n                        </div></li>\r\n                    </ul>\r\n                    </div></li>\r\n                    <li class=\"list-unstyled\">\r\n                    <div class=\"treeview hover p-l-10\">\r\n                    <input id=\"test-SDE_Sex_690\" type=\"checkbox\"/>\r\n                    <label for=\"test-SDE_Sex_690\" class=\"list-header\"><strong> SDE Sex</strong></label>\r\n                    <ul style=\"margin-right: 20%; opacity: 1;\" class=\"code\">\r\n                        <li class=\"list-unstyled\">\r\n                        <div>\r\n                        <ul style=\"padding-left: 0px;\">\r\n                        <li style=\"padding-left: 0px;\" class=\"list-unstyled\">\r\n                            <div>\r\n                            <pre class=\"cql-definition-body\">[&quot;Patient Characteristic Sex&quot;: &quot;ONC Administrative Sex&quot;] </pre>\r\n                            </div></li>\r\n                        </ul>%26nbsp;\r\n                        </div></li>\r\n                    </ul>\r\n                    </div></li>\r\n                    </ul>\r\n                </div>\r\n                <h3><a name=\"d1e879\" href=\"#toc\">Risk Adjustment Variables</a></h3>\r\n                <div>\r\n                    <ul style=\"list-style:none;padding-left: 25px;\">\r\n                    <li>None</li>\r\n                    </ul>\r\n                </div>\r\n                <div style=\"float:left; background:teal; height:3px; width:80%\"/>\r\n                <table class=\"header_table\">\r\n                    <tbody>\r\n                    <tr>\r\n                    <td style=\"background-color:#656565; width:20%\"><span class=\"td_label\">Measure Set</span></td>\r\n                    <td colspan=\"3\" style=\"width:80%\">\r\n                    <div style=\"width:660px;overflow-x:hidden;overflow-y:auto\">\r\n                        <pre>eMeasure Stroke (eSTK)</pre>\r\n                    </div></td>\r\n                    </tr>\r\n                    </tbody>\r\n                </table></div>"
      },
      "extension": [ {
        "url": "http://hl7.org/fhir/us/cqfmeasures/StructureDefinition/cqfm-populationBasis",
        "valueCode": "Encounter"
      }, {
        "url": "http://hl7.org/fhir/us/cqfmeasures/StructureDefinition/cqfm-softwaresystem",
        "valueReference": {
          "reference": "cqf-tooling"
        }
      } ],
      "url": "http://hl7.org/fhir/us/cqfmeasures/Measure/measure-EXM105-FHIR3-8.0.000",
      "identifier": [ {
        "use": "official",
        "system": "http://hl7.org/fhir/cqi/ecqm/Measure/Identifier/cms",
        "value": "105"
      } ],
      "version": "8.0.000",
      "name": "EXM105",
      "title": "Discharged on Statin Medication",
      "status": "draft",
      "experimental": true,
      "publisher": "The Joint Commission",
      "description": "Ischemic stroke patients who are prescribed or continuing to take statin medication at hospital discharge",
      "purpose": "Ischemic stroke patients who are prescribed or continuing to take statin medication at hospital discharge",
      "approvalDate": "2016-01-01",
      "lastReviewDate": "2019-08-19",
      "effectivePeriod": {
        "start": "2019-01-01",
        "end": "2019-12-31"
      },
      "useContext": [ {
        "code": {
          "code": "program"
        },
        "valueCodeableConcept": {
          "text": "eligible-provider"
        }
      } ],
      "jurisdiction": [ {
        "coding": [ {
          "system": "urn:iso:std:iso:3166",
          "code": "US"
        } ]
      } ],
      "topic": [ {
        "coding": [ {
          "code": "57024-2"
        } ]
      } ],
      "contributor": [ {
        "type": "author",
        "name": "National Committee for Quality Assurance"
      } ],
      "contact": [ {
        "telecom": [ {
          "system": "url",
          "value": "http://www.ncqa.org/"
        } ]
      } ],
      "copyright": "Measure specifications are in the Public Domain. LOINC(R) is a registered trademark of the Regenstrief Institute. This material contains SNOMED Clinical Terms(R) (SNOMED CT(C)) copyright 2004-2017 International Health Terminology Standards Development Organization. All rights reserved.",
      "relatedArtifact": [ {
        "type": "depends-on",
        "resource": {
          "reference": "Library/library-FHIRHelpers-3.0.0"
        }
      }, {
        "type": "depends-on",
        "resource": {
          "reference": "Library/library-MATGlobalCommonFunctions-FHIR3-4.0.000"
        }
      }, {
        "type": "depends-on",
        "resource": {
          "reference": "Library/library-SupplementalDataElements-FHIR3-1.0.0"
        }
      }, {
        "type": "depends-on",
        "resource": {
          "reference": "Library/library-TJCOverall-FHIR3-3.6.000"
        }
      }, {
        "type": "depends-on",
        "url": "urn:hl7-org:elm-types:r1"
      }, {
        "type": "depends-on",
        "url": "http://hl7.org/fhir|3.0.0"
      }, {
        "type": "citation",
        "citation": "Amarenco, P., Bogousslavsky, J., Callahan, A., III, et al. (2006, August 10). High-dose atorvastatin after stroke or transient ischemic attack. New England Journal of Medicine, 355(6), 549-559. "
      }, {
        "type": "citation",
        "citation": "Biffi, A., Devan, W. J., Anderson, C. D., et al. (2011, May). Statin treatment and functional outcome after ischemic stroke: Case-control and meta-analysis. Stroke, 42(5), 1314-1319."
      }, {
        "type": "citation",
        "citation": "Centers for Disease Control and Prevention. (2009, May 1). Prevalence and most common causes of disability among adultsUnited States, 2005. Morbidity and Mortality Weekly Report, 58(16), 421-426."
      }, {
        "type": "citation",
        "citation": "Chan, P. S., Nallamothu, B. K., Gurm, H. S., et al. (2007, May 8). Incremental benefit and cost-effectiveness of high-dose statin therapy in high-risk patients with coronary artery disease. Circulation, 115(18), 2398-2409."
      }, {
        "type": "citation",
        "citation": "Culver, A. L., Ockene, I. S., Balasubramanian, R., et al. (2012, January 23). Statin use and risk of diabetes mellitus in postmenopausal women in the Women's Health Initiative. Archives of Internal Medicine, 172(2),  144-152."
      }, {
        "type": "citation",
        "citation": "Feher, A., Pusch, G., Koltai, K., et al. (2011, April 14). Statin therapy in the primary and the secondary prevention of ischaemic cerebrovascular diseases. International Journal of Cardiology, 148(2), 131-138."
      }, {
        "type": "citation",
        "citation": "Grundy, S. M., Cleeman, J. I., Merz, C. N., et al. (2004, July 13). Implications of recent clinical trials for the National Cholesterol Education Program Adult Treatment Panel III Guidelines. Circulation, 110(2), 227-239."
      }, {
        "type": "citation",
        "citation": "Kernan, W. N., Ovbiagele, B., Black, H. R., et al. (2014, May). Guidelines for the prevention of stroke in patients with stroke and transient ischemic attack: A guideline for health care professionals from the American Heart Association/American Stroke Association. Stroke, 45(7), 2160-2223. "
      }, {
        "type": "citation",
        "citation": "Kostis, W. J., Cheng, J. Q., Dobrzynski, J. M., et al. (2012, February 7). Meta-analysis of statin effects in women versus men. Journal of the American College of Cardiology, 59(6), 572-582."
      }, {
        "type": "citation",
        "citation": "Lazar, L. D., Pletcher, M. J., Coxson, P. G., et al. (2011, July 12). Cost-effectiveness of statin therapy for primary prevention in a low-cost statin era. Circulation, 124(2), 146-153."
      }, {
        "type": "citation",
        "citation": "Mitka, M. (2012, March 7). Some question use of statins to reduce cardiovascular risks in healthy women. JAMA, 307(9), 893-894."
      }, {
        "type": "citation",
        "citation": "National Cholesterol Education Program Expert Panel on Detection, Evaluation, and Adults Treatment of High Blood Cholesterol in Adults. (2002, December 17). Third report of the National Cholesterol Education Program (NCEP) Expert Panel on Detection, Evaluation, and Treatment of High Blood Cholesterol in Adults (Adult Treatment Panel III)Final report. Circulation, 106(25), 3143-3421. "
      }, {
        "type": "citation",
        "citation": "Powers, W. J., Rabinstein, A. A., Ackerson, T., et al. (2018, January). 2018 guidelines for the early management of patients with acute ischemic stroke: A guideline for health care professionals from the American Heart Association/American Stroke Association. Stroke, 49, e44-e47."
      }, {
        "type": "citation",
        "citation": "Rodriguez-Yanez, M., Agulla, J., Rodriguez-Gonzalez, R., et al. (2008, June). Statins and stroke. Therapeutic Advances in Cardiovascular Disease, 2(3), 157-166."
      }, {
        "type": "citation",
        "citation": "Roger, V. L., Go, A. S., Lloyd-Jones, D. M., et al. (2012, January 3). Heart disease and stroke statistics2012 update: A report from the American Heart Association. Circulation, 125(1), e2-e220."
      }, {
        "type": "citation",
        "citation": "Schellinger, P. D., Bryan, R. N., Caplan, L. R., et al. (2010, July 13). Evidence-based guideline: The role of diffusion and perfusion MRI for the diagnosis of acute ischemic stroke: Report of the Therapeutics and Technology Assessment Subcommittee of the American Academy of Neurology.  Neurology, 75(2), 177-185."
      }, {
        "type": "citation",
        "citation": "Squizzato, A., Romualdi, E., Dentali, F., et al. (2011). Statins for acute ischemic stroke. Cochrane Database of Systematic Reviews, 8, CD007551."
      }, {
        "type": "citation",
        "citation": "Stone, N. J., Robinson, J., Lichtenstein, A. H., et al. (2013, November). Guideline on the treatment of blood cholesterol to reduce atherosclerotic cardiovascular disease in adults: A report of the American College of Cardiology/American Heart Association Task Force on Practice Guidelines. Circulation, 11, 1-84."
      }, {
        "type": "citation",
        "citation": "Van Dis, F. J., Keilson, L. M., Rundell, C. A., et al. (1996, June). Direct measurement of serum low-density lipoprotein cholesterol in patients with acute myocardial infarction on admission to the emergency room. American Journal of Cardiology, 77(14), 1232-1234."
      }, {
        "type": "citation",
        "citation": "Weiss, R., Harder, M., & Rowe, J. (2003, May). The relationship between nonfasting and fasting lipid measurements in patients with or without type 2 diabetes mellitus receiving treatment with 3-hydroxy-3-methylglutaryl-coenzyme a reductase inhibitors. Clinical Therapeutics, 25(5), 1490-1497."
      } ],
      "library": [ {
        "reference": "Library/library-EXM105-FHIR3-8.0.000"
      } ],
      "disclaimer": "These performance measures are not clinical guidelines and do not establish a standard of medical care, and have not been tested for all potential applications. The measures and specifications are provided without warranty.",
      "scoring": {
        "coding": [ {
          "system": "http://hl7.org/fhir/measure-scoring",
          "code": "proportion"
        } ]
      },
      "type": [ {
        "coding": [ {
          "system": "http://hl7.org/fhir/measure-type",
          "code": "process"
        } ]
      } ],
      "rateAggregation": "none",
      "rationale": "There is an extensive and consistent body of evidence supporting the use of statins for secondary prevention in patients with clinically evident atherosclerotic cardiovascular disease (ASCVD), which includes individuals with ischemic stroke due to large artery atherosclerosis, individuals with ischemic stroke due to intrinsic small vessel disease, and individuals with ischemic stroke not directly due to atherosclerosis but with clinically evident atherosclerotic disease in an uninvolved cerebral or noncerebral bed.  Both women and men with clinical ASCVD are at increased risk for recurrent ASCVD and ASCVD death.  High-intensity statin therapy should be initiated or continued as first-line therapy in women and men less than or equal to 75 years of age who have clinical ASCVD, unless contraindicated. In patients with clinical ASCVD and a contraindication to high-intensity statin therapy, moderate-intensity therapy should be considered as an alternative if it can be tolerated.  In individuals greater than 75 years of age, the potential for ASCVD risk reduction benefits, adverse effects, drug-drug interactions, and patient preferences should be considered, and statin therapy individualized based on these considerations (Stone, 2013).",
      "clinicalRecommendationStatement": "For patients with stroke of atherosclerotic origin, intensive lipid lowering therapy with statins should be initiated",
      "improvementNotation": "increase",
      "guidance": "The \"Non-elective Inpatient Encounter\" value set intends to capture all non-scheduled hospitalizations. This value set is a subset of the \"Inpatient encounter\" value set, excluding concepts that specifically refer to elective hospital admissions. Non-elective admissions include emergency, urgent and unplanned admissions.\n\nThe \"Medication, Discharge\" datatype refers to the discharge medication list and is intended to express medications ordered for post-discharge use.",
      "group": [ {
        "identifier": {
          "value": "group-1"
        },
        "population": [ {
          "identifier": {
            "value": "initial-population"
          },
          "code": {
            "coding": [ {
              "code": "initial-population"
            } ]
          },
          "criteria": "Initial Population"
        }, {
          "identifier": {
            "value": "numerator"
          },
          "code": {
            "coding": [ {
              "code": "numerator"
            } ]
          },
          "criteria": "Numerator"
        }, {
          "identifier": {
            "value": "denominator"
          },
          "code": {
            "coding": [ {
              "code": "denominator"
            } ]
          },
          "criteria": "Denominator"
        }, {
          "identifier": {
            "value": "denominator-exclusion"
          },
          "code": {
            "coding": [ {
              "code": "denominator-exclusion"
            } ]
          },
          "criteria": "Denominator Exclusion"
        } ]
      } ],
      "supplementalData": [ {
        "identifier": {
          "value": "sde-ethnicity"
        },
        "usage": [ {
          "coding": [ {
            "code": "supplemental-data"
          } ]
        } ],
        "criteria": "SDE Ethnicity"
      }, {
        "identifier": {
          "value": "sde-payer"
        },
        "usage": [ {
          "coding": [ {
            "code": "supplemental-data"
          } ]
        } ],
        "criteria": "SDE Payer"
      }, {
        "identifier": {
          "value": "sde-race"
        },
        "usage": [ {
          "coding": [ {
            "code": "supplemental-data"
          } ]
        } ],
        "criteria": "SDE Race"
      }, {
        "identifier": {
          "value": "sde-sex"
        },
        "usage": [ {
          "coding": [ {
            "code": "supplemental-data"
          } ]
        } ],
        "criteria": "SDE Sex"
      } ]
    },
    "request": {
      "method": "PUT",
      "url": "Measure/measure-EXM105-FHIR3-8.0.000/_history/5"
    }
  }, {
    "resource": {
      "resourceType": "Encounter",
      "id": "denomex-EXM105-FHIR3-2",
      "meta": {
        "profile": [ "http://hl7.org/fhir/us/core/StructureDefinition/us-core-encounter" ]
      },
      "status": "finished",
      "class": {
        "system": "http://terminology.hl7.org/CodeSystem/v3-ActCode",
        "code": "IMP",
        "display": "inpatient encounter"
      },
      "type": [ {
        "coding": [ {
          "system": "http://snomed.info/sct",
          "code": "32485007",
          "display": "Hospital admission (procedure)"
        } ]
      } ],
      "subject": {
        "reference": "Patient/denomex-EXM105-FHIR3"
      },
      "period": {
        "start": "2019-08-21T00:00:00-06:00",
        "end": "2019-12-19T08:15:00-07:00"
      },
      "diagnosis": [ {
        "condition": {
          "reference": "Condition/denomex-EXM105-FHIR3-1"
        },
        "role": {
          "coding": [ {
            "system": "http://hl7.org/fhir/diagnosis-role",
            "code": "billing",
            "display": "Billing"
          } ]
        },
        "rank": 1
      } ],
      "hospitalization": {
        "dischargeDisposition": {
          "coding": [ {
            "system": "http://snomed.info/sct",
            "code": "306701001",
            "display": "Discharge to community hospital (procedure)"
          } ]
        }
      }
    },
    "request": {
      "method": "PUT",
      "url": "Encounter/denomex-EXM105-FHIR3-2"
    }
  }, {
    "resource": {
      "resourceType": "Condition",
      "id": "denomex-EXM105-FHIR3-1",
      "meta": {
        "profile": [ "http://hl7.org/fhir/us/core/StructureDefinition/us-core-condition" ]
      },
      "verificationStatus": "confirmed",
      "category": [ {
        "coding": [ {
          "system": "http://terminology.hl7.org/CodeSystem/condition-category",
          "code": "encounter-diagnosis",
          "display": "Encounter Diagnosis"
        } ]
      } ],
      "code": {
        "coding": [ {
          "system": "http://snomed.info/sct",
          "code": "116288000",
          "display": "Paralytic stroke (disorder)"
        } ]
      },
      "subject": {
        "reference": "Patient/denomex-EXM105-FHIR3"
      }
    },
    "request": {
      "method": "PUT",
      "url": "Condition/denomex-EXM105-FHIR3-1"
    }
  }, {
    "resource": {
      "resourceType": "MeasureReport",
      "id": "measurereport-denom-EXM105-FHIR3",
      "contained": [ {
        "resourceType": "Bundle",
        "id": "ee557d53-01dd-40e3-8034-aae3a8e13a90",
        "type": "collection",
        "entry": [ {
          "fullUrl": "9ec57e92-92e1-4b47-a7c4-ff720de4d668",
          "resource": {
            "resourceType": "List",
            "id": "9ec57e92-92e1-4b47-a7c4-ff720de4d668",
            "title": "initial-population",
            "entry": [ {
              "item": {
                "reference": "denom-EXM105-FHIR3-1"
              }
            }, {
              "item": {
                "reference": "denom-EXM105-FHIR3-2"
              }
            }, {
              "item": {
                "reference": "denom-EXM105-FHIR3"
              }
            } ]
          }
        }, {
          "fullUrl": "Condition/denom-EXM105-FHIR3-1",
          "resource": {
            "resourceType": "Condition",
            "id": "denom-EXM105-FHIR3-1",
            "meta": {
              "profile": [ "http://hl7.org/fhir/us/core/StructureDefinition/us-core-condition" ]
            },
            "verificationStatus": "confirmed",
            "category": [ {
              "coding": [ {
                "system": "http://terminology.hl7.org/CodeSystem/condition-category",
                "code": "encounter-diagnosis",
                "display": "Encounter Diagnosis"
              } ]
            } ],
            "code": {
              "coding": [ {
                "system": "http://snomed.info/sct",
                "code": "116288000",
                "display": "Paralytic stroke (disorder)"
              } ]
            },
            "subject": {
              "reference": "Patient/denom-EXM105-FHIR3"
            }
          }
        }, {
          "fullUrl": "a65a6e37-12ac-4768-84f9-d944611be9f0",
          "resource": {
            "resourceType": "List",
            "id": "a65a6e37-12ac-4768-84f9-d944611be9f0",
            "title": "denominator",
            "entry": [ {
              "item": {
                "reference": "denom-EXM105-FHIR3-1"
              }
            } ]
          }
        }, {
          "fullUrl": "Encounter/denom-EXM105-FHIR3-2",
          "resource": {
            "resourceType": "Encounter",
            "id": "denom-EXM105-FHIR3-2",
            "meta": {
              "profile": [ "http://hl7.org/fhir/us/core/StructureDefinition/us-core-encounter" ]
            },
            "status": "finished",
            "class": {
              "system": "http://terminology.hl7.org/CodeSystem/v3-ActCode",
              "code": "IMP",
              "display": "inpatient encounter"
            },
            "type": [ {
              "coding": [ {
                "system": "http://snomed.info/sct",
                "code": "32485007",
                "display": "Hospital admission (procedure)"
              } ]
            } ],
            "subject": {
              "reference": "Patient/denom-EXM105-FHIR3"
            },
            "period": {
              "start": "2019-08-21T00:00:00-06:00",
              "end": "2019-12-19T08:15:00-07:00"
            },
            "diagnosis": [ {
              "condition": {
                "reference": "Condition/denom-EXM105-FHIR3-1"
              },
              "role": {
                "coding": [ {
                  "system": "http://hl7.org/fhir/diagnosis-role",
                  "code": "billing",
                  "display": "Billing"
                } ]
              },
              "rank": 1
            } ]
          }
        }, {
          "fullUrl": "Patient/denom-EXM105-FHIR3",
          "resource": {
            "resourceType": "Patient",
            "id": "denom-EXM105-FHIR3",
            "meta": {
              "profile": [ "http://hl7.org/fhir/us/core/StructureDefinition/us-core-patient" ]
            },
            "extension": [ {
              "url": "http://hl7.org/fhir/us/core/StructureDefinition/us-core-race",
              "extension": [ {
                "url": "ombCategory",
                "valueCoding": {
                  "system": "urn:oid:2.16.840.1.113883.6.238",
                  "code": "2054-5",
                  "display": "Black or African American"
                }
              } ]
            }, {
              "url": "http://hl7.org/fhir/us/core/StructureDefinition/us-core-ethnicity",
              "extension": [ {
                "url": "ombCategory",
                "valueCoding": {
                  "system": "urn:oid:2.16.840.1.113883.6.238",
                  "code": "2135-2",
                  "display": "Hispanic or Latino"
                }
              } ]
            } ],
            "identifier": [ {
              "use": "usual",
              "type": {
                "coding": [ {
                  "system": "http://terminology.hl7.org/CodeSystem/v2-0203",
                  "code": "MR",
                  "display": "Medical Record Number"
                } ]
              },
              "system": "http://hospital.smarthealthit.org",
              "value": "9999999910"
            } ],
            "name": [ {
              "family": "Jones",
              "given": [ "Rick" ]
            } ],
            "gender": "male",
            "birthDate": "1955-11-05"
          }
        } ]
      } ],
      "status": "complete",
      "type": "individual",
      "measure": {
        "reference": "Measure/measure-EXM105-FHIR3-8.0.000"
      },
      "patient": {
        "reference": "Patient/denom-EXM105-FHIR3"
      },
      "period": {
        "start": "2019-01-01T00:00:00-07:00",
        "end": "2019-12-31T00:00:00-07:00"
      },
      "group": [ {
        "identifier": {
          "value": "group-1"
        },
        "population": [ {
          "identifier": {
            "value": "initial-population"
          },
          "code": {
            "coding": [ {
              "code": "initial-population"
            } ]
          },
          "count": 1
        }, {
          "identifier": {
            "value": "numerator"
          },
          "code": {
            "coding": [ {
              "code": "numerator"
            } ]
          },
          "count": 0
        }, {
          "identifier": {
            "value": "denominator"
          },
          "code": {
            "coding": [ {
              "code": "denominator"
            } ]
          },
          "count": 1
        }, {
          "identifier": {
            "value": "denominator-exclusion"
          },
          "code": {
            "coding": [ {
              "code": "denominator-exclusion"
            } ]
          },
          "count": 0
        } ],
        "measureScore": 0.0
      } ],
      "evaluatedResources": {
        "reference": "#ee557d53-01dd-40e3-8034-aae3a8e13a90"
      }
    },
    "request": {
      "method": "PUT",
      "url": "MeasureReport/measurereport-denom-EXM105-FHIR3"
    }
  }, {
    "resource": {
      "resourceType": "Patient",
      "id": "numer-EXM105-FHIR3",
      "meta": {
        "profile": [ "http://hl7.org/fhir/us/core/StructureDefinition/us-core-patient" ]
      },
      "extension": [ {
        "url": "http://hl7.org/fhir/us/core/StructureDefinition/us-core-race",
        "extension": [ {
          "url": "ombCategory",
          "valueCoding": {
            "system": "urn:oid:2.16.840.1.113883.6.238",
            "code": "2106-3",
            "display": "White"
          }
        } ]
      }, {
        "url": "http://hl7.org/fhir/us/core/StructureDefinition/us-core-ethnicity",
        "extension": [ {
          "url": "ombCategory",
          "valueCoding": {
            "system": "urn:oid:2.16.840.1.113883.6.238",
            "code": "2186-5",
            "display": "Not Hispanic or Latino"
          }
        } ]
      } ],
      "identifier": [ {
        "use": "usual",
        "type": {
          "coding": [ {
            "system": "http://terminology.hl7.org/CodeSystem/v2-0203",
            "code": "MR",
            "display": "Medical Record Number"
          } ]
        },
        "system": "http://hospital.smarthealthit.org",
        "value": "9999999911"
      } ],
      "name": [ {
        "family": "Jones",
        "given": [ "Louise" ]
      } ],
      "gender": "female",
      "birthDate": "1971-11-21"
    },
    "request": {
      "method": "PUT",
      "url": "Patient/numer-EXM105-FHIR3"
    }
  }, {
    "resource": {
      "resourceType": "MeasureReport",
      "id": "measurereport-denomex-EXM105-FHIR3",
      "contained": [ {
        "resourceType": "Bundle",
        "id": "18462d4f-6e68-45d0-a873-b507fc894223",
        "type": "collection",
        "entry": [ {
          "fullUrl": "81575980-8a5d-4762-9b5c-e65d5ea04c47",
          "resource": {
            "resourceType": "List",
            "id": "81575980-8a5d-4762-9b5c-e65d5ea04c47",
            "title": "initial-population",
            "entry": [ {
              "item": {
                "reference": "denomex-EXM105-FHIR3-2"
              }
            }, {
              "item": {
                "reference": "denomex-EXM105-FHIR3-1"
              }
            }, {
              "item": {
                "reference": "denomex-EXM105-FHIR3"
              }
            } ]
          }
        }, {
          "fullUrl": "8b8f1694-919a-4035-a715-cb268802be10",
          "resource": {
            "resourceType": "List",
            "id": "8b8f1694-919a-4035-a715-cb268802be10",
            "title": "denominator",
            "entry": [ {
              "item": {
                "reference": "denomex-EXM105-FHIR3-1"
              }
            } ]
          }
        }, {
          "fullUrl": "Encounter/denomex-EXM105-FHIR3-2",
          "resource": {
            "resourceType": "Encounter",
            "id": "denomex-EXM105-FHIR3-2",
            "meta": {
              "profile": [ "http://hl7.org/fhir/us/core/StructureDefinition/us-core-encounter" ]
            },
            "status": "finished",
            "class": {
              "system": "http://terminology.hl7.org/CodeSystem/v3-ActCode",
              "code": "IMP",
              "display": "inpatient encounter"
            },
            "type": [ {
              "coding": [ {
                "system": "http://snomed.info/sct",
                "code": "32485007",
                "display": "Hospital admission (procedure)"
              } ]
            } ],
            "subject": {
              "reference": "Patient/denomex-EXM105-FHIR3"
            },
            "period": {
              "start": "2019-08-21T00:00:00-06:00",
              "end": "2019-12-19T08:15:00-07:00"
            },
            "diagnosis": [ {
              "condition": {
                "reference": "Condition/denomex-EXM105-FHIR3-1"
              },
              "role": {
                "coding": [ {
                  "system": "http://hl7.org/fhir/diagnosis-role",
                  "code": "billing",
                  "display": "Billing"
                } ]
              },
              "rank": 1
            } ],
            "hospitalization": {
              "dischargeDisposition": {
                "coding": [ {
                  "system": "http://snomed.info/sct",
                  "code": "306701001",
                  "display": "Discharge to community hospital (procedure)"
                } ]
              }
            }
          }
        }, {
          "fullUrl": "Condition/denomex-EXM105-FHIR3-1",
          "resource": {
            "resourceType": "Condition",
            "id": "denomex-EXM105-FHIR3-1",
            "meta": {
              "profile": [ "http://hl7.org/fhir/us/core/StructureDefinition/us-core-condition" ]
            },
            "verificationStatus": "confirmed",
            "category": [ {
              "coding": [ {
                "system": "http://terminology.hl7.org/CodeSystem/condition-category",
                "code": "encounter-diagnosis",
                "display": "Encounter Diagnosis"
              } ]
            } ],
            "code": {
              "coding": [ {
                "system": "http://snomed.info/sct",
                "code": "116288000",
                "display": "Paralytic stroke (disorder)"
              } ]
            },
            "subject": {
              "reference": "Patient/denomex-EXM105-FHIR3"
            }
          }
        }, {
          "fullUrl": "Patient/denomex-EXM105-FHIR3",
          "resource": {
            "resourceType": "Patient",
            "id": "denomex-EXM105-FHIR3",
            "meta": {
              "profile": [ "http://hl7.org/fhir/us/core/StructureDefinition/us-core-patient" ]
            },
            "extension": [ {
              "url": "http://hl7.org/fhir/us/core/StructureDefinition/us-core-race",
              "extension": [ {
                "url": "ombCategory",
                "valueCoding": {
                  "system": "urn:oid:2.16.840.1.113883.6.238",
                  "code": "2106-3",
                  "display": "White"
                }
              } ]
            }, {
              "url": "http://hl7.org/fhir/us/core/StructureDefinition/us-core-ethnicity",
              "extension": [ {
                "url": "ombCategory",
                "valueCoding": {
                  "system": "urn:oid:2.16.840.1.113883.6.238",
                  "code": "2186-5",
                  "display": "Not Hispanic or Latino"
                }
              } ]
            } ],
            "identifier": [ {
              "use": "usual",
              "type": {
                "coding": [ {
                  "system": "http://terminology.hl7.org/CodeSystem/v2-0203",
                  "code": "MR",
                  "display": "Medical Record Number"
                } ]
              },
              "system": "http://hospital.smarthealthit.org",
              "value": "9999999911"
            } ],
            "name": [ {
              "family": "Jones",
              "given": [ "Louise" ]
            } ],
            "gender": "female",
            "birthDate": "1971-11-21"
          }
        } ]
      } ],
      "status": "complete",
      "type": "individual",
      "measure": {
        "reference": "Measure/measure-EXM105-FHIR3-8.0.000"
      },
      "patient": {
        "reference": "Patient/denomex-EXM105-FHIR3"
      },
      "period": {
        "start": "2019-01-01T00:00:00-07:00",
        "end": "2019-12-31T00:00:00-07:00"
      },
      "group": [ {
        "identifier": {
          "value": "group-1"
        },
        "population": [ {
          "identifier": {
            "value": "initial-population"
          },
          "code": {
            "coding": [ {
              "code": "initial-population"
            } ]
          },
          "count": 1
        }, {
          "identifier": {
            "value": "numerator"
          },
          "code": {
            "coding": [ {
              "code": "numerator"
            } ]
          },
          "count": 0
        }, {
          "identifier": {
            "value": "denominator"
          },
          "code": {
            "coding": [ {
              "code": "denominator"
            } ]
          },
          "count": 0
        }, {
          "identifier": {
            "value": "denominator-exclusion"
          },
          "code": {
            "coding": [ {
              "code": "denominator-exclusion"
            } ]
          },
          "count": 1
        } ]
      } ],
      "evaluatedResources": {
        "reference": "#18462d4f-6e68-45d0-a873-b507fc894223"
      }
    },
    "request": {
      "method": "PUT",
      "url": "MeasureReport/measurereport-denomex-EXM105-FHIR3"
    }
  }, {
    "resource": {
      "resourceType": "MedicationRequest",
      "id": "denomex-EXM105-FHIR3-5",
      "status": "completed",
      "intent": "order",
      "category": {
        "coding": [ {
          "system": "http://terminology.hl7.org/CodeSystem/medicationrequest-category",
          "code": "discharge",
          "display": "Discharge"
        } ]
      },
      "medicationCodeableConcept": {
        "coding": [ {
          "system": "http://www.nlm.nih.gov/research/umls/rxnorm",
          "code": "197903",
          "display": "Lovastatin 10 MG Oral Tablet"
        } ]
      },
      "subject": {
        "reference": "Patient/denomex-EXM105-FHIR3"
      },
      "authoredOn": "2019-12-19T08:00:00-07:00"
    },
    "request": {
      "method": "PUT",
      "url": "MedicationRequest/denomex-EXM105-FHIR3-5"
    }
  }, {
    "resource": {
      "resourceType": "Patient",
      "id": "denom-EXM105-FHIR3",
      "meta": {
        "profile": [ "http://hl7.org/fhir/us/core/StructureDefinition/us-core-patient" ]
      },
      "extension": [ {
        "url": "http://hl7.org/fhir/us/core/StructureDefinition/us-core-race",
        "extension": [ {
          "url": "ombCategory",
          "valueCoding": {
            "system": "urn:oid:2.16.840.1.113883.6.238",
            "code": "2054-5",
            "display": "Black or African American"
          }
        } ]
      }, {
        "url": "http://hl7.org/fhir/us/core/StructureDefinition/us-core-ethnicity",
        "extension": [ {
          "url": "ombCategory",
          "valueCoding": {
            "system": "urn:oid:2.16.840.1.113883.6.238",
            "code": "2135-2",
            "display": "Hispanic or Latino"
          }
        } ]
      } ],
      "identifier": [ {
        "use": "usual",
        "type": {
          "coding": [ {
            "system": "http://terminology.hl7.org/CodeSystem/v2-0203",
            "code": "MR",
            "display": "Medical Record Number"
          } ]
        },
        "system": "http://hospital.smarthealthit.org",
        "value": "9999999910"
      } ],
      "name": [ {
        "family": "Jones",
        "given": [ "Rick" ]
      } ],
      "gender": "male",
      "birthDate": "1955-11-05"
    },
    "request": {
      "method": "PUT",
      "url": "Patient/denom-EXM105-FHIR3"
    }
  }, {
    "resource": {
      "resourceType": "Bundle",
      "id": "tests-Patient-bundle",
      "type": "transaction",
      "entry": [ {
        "resource": {
          "resourceType": "Patient",
          "id": "denomex-EXM105-FHIR3",
          "meta": {
            "profile": [ "http://hl7.org/fhir/us/core/StructureDefinition/us-core-patient" ]
          },
          "extension": [ {
            "url": "http://hl7.org/fhir/us/core/StructureDefinition/us-core-race",
            "extension": [ {
              "url": "ombCategory",
              "valueCoding": {
                "system": "urn:oid:2.16.840.1.113883.6.238",
                "code": "2106-3",
                "display": "White"
              }
            } ]
          }, {
            "url": "http://hl7.org/fhir/us/core/StructureDefinition/us-core-ethnicity",
            "extension": [ {
              "url": "ombCategory",
              "valueCoding": {
                "system": "urn:oid:2.16.840.1.113883.6.238",
                "code": "2186-5",
                "display": "Not Hispanic or Latino"
              }
            } ]
          } ],
          "identifier": [ {
            "use": "usual",
            "type": {
              "coding": [ {
                "system": "http://terminology.hl7.org/CodeSystem/v2-0203",
                "code": "MR",
                "display": "Medical Record Number"
              } ]
            },
            "system": "http://hospital.smarthealthit.org",
            "value": "9999999911"
          } ],
          "name": [ {
            "family": "Jones",
            "given": [ "Louise" ]
          } ],
          "gender": "female",
          "birthDate": "1971-11-21"
        },
        "request": {
          "method": "PUT",
          "url": "Patient/denomex-EXM105-FHIR3"
        }
      } ]
    },
    "request": {
      "method": "PUT",
      "url": "tests-Patient-bundle"
    }
  } ]
}